time,wind_speed,wind_angle,battery_voltage,battery_current,position_x,position_y,position_z,orientation_x,orientation_y,orientation_z,orientation_w,velocity_x,velocity_y,velocity_z,angular_x,angular_y,angular_z,linear_acceleration_x,linear_acceleration_y,linear_acceleration_z,ground_station_distance,comm_range_status,velocity_total,acceleration_x,acceleration_y,acceleration_z,acceleration_total
0.0,7.693324017,180.0,11.032666899575,18.977746723333333,-104.03110700596432,26.45804724,269.3324017,-0.37877337030319097,0.05456503898279339,0.9144449544172248,0.13169592176999056,-8.499998216393578e-07,2.5000002068509275e-07,0.021750920540171137,0.0031987468529190337,0.002665941432877096,0.002132961999836749,6.4999966298273665e-06,-1.5000008346532923e-06,0.35455778428854523,289.9352377585909,0,0.03873825636961052,6.4999966298273665e-06,-1.5000008346532923e-06,0.35455778428854523,0.30084831248249044
0.2,7.733364852227746,180.59998222238025,11.032665812028972,18.97789172947027,-104.03110717596428,26.458047290000003,269.336751884108,-0.37877337030319097,0.05456503898279339,0.9144449544172248,0.13169592176999056,-8.499998216393578e-07,2.5000002068509275e-07,0.021750920540171137,0.0031987468529190337,0.002665941432877096,0.002132961999836749,6.4999966298273665e-06,-1.5000008346532923e-06,0.35455778428854523,289.9392788880775,0,0.03873825636961052,6.4999966298273665e-06,-1.5000008346532923e-06,0.35455778428854523,0.30084831248249044
0.3,7.753415725945041,180.89994000119998,11.032664381861498,18.97808241846683,-104.0311071959643,26.458047299999997,269.3424725540049,-0.37244591777483027,0.0879241021586279,0.8991647280420229,0.21226441632449508,-2.000001586566214e-07,9.999993721976355e-08,0.05720669896902565,0.0031987468529190337,0.002665941432877096,0.002132961999836749,6.4999966298273665e-06,-1.5000008346532923e-06,0.35455778428854523,289.9445930740081,0,0.03873825636961052,6.4999966298273665e-06,-1.5000008346532923e-06,0.35455778428854523,0.30084831248249044
0.5,7.793445679496521,181.4997222376539,11.03266281647612,18.97829113651721,-104.0311073359643,26.458047309999998,269.34873409551636,-0.38243985841702144,0.013651525360039978,0.9232922294809207,0.032937054049558975,-6.999999868639861e-07,5.000000413701855e-08,0.03130770755717549,0.004816975963958995,0.004014916510145171,0.0032124371963589402,-2.499999141036824e-06,-2.49999665413725e-07,-0.1294949570592508,289.9504097597765,0,0.03873825636961052,-2.499999141036824e-06,-2.49999665413725e-07,-0.1294949570592508,0.30084831248249044
0.6,7.8134775849042954,181.79952003839853,11.032661260701364,18.978498573151356,-104.03110734596427,26.458047309999998,269.35495719454065,-0.38268343236466806,7.422970741821642e-07,0.9238795325111121,3.0746951548270436e-07,-9.99997951112164e-08,0.0,0.062230990242824205,0.006214573614052555,0.005180192754151117,0.004145058560445501,6.000001917527699e-06,-5.000000413701856e-07,0.30923282685648723,289.9561907053522,0,0.0479068994157799,6.000001917527699e-06,-5.000000413701856e-07,0.30923282685648723,0.30084831248249044
0.81,7.855416992474858,182.42881919217493,11.032660147965728,18.978646937902873,-104.03110747596429,26.45804735,269.3594081370862,-0.37842711860607353,0.056916828605374496,0.9136078948264934,0.13738269554683394,-6.190477041032169e-07,1.9047620623626107e-07,0.021194964502531843,0.007810229626746138,0.006511011732255397,0.005210437678771718,-2.4716567094857158e-06,9.070295535060048e-07,-0.1954096463823445,289.9603254657641,0,0.037903547860399595,-2.4716567094857158e-06,9.070295535060048e-07,-0.1954096463823445,0.2903409502374056
0.9,7.8734120144890944,182.698380291575,11.032658627097673,18.97884972031024,-104.0311074859643,26.45804735,269.3654916093072,-0.3826834323646485,7.593363065312184e-07,0.923879532511104,3.1452739661408923e-07,-1.1111119925367856e-07,0.0,0.0675941357889719,0.009204890387110958,0.007674587837471577,0.006142188341420099,5.643738942772649e-06,-2.1164022915140128e-06,0.5155463476271119,289.96597673564196,0,0.03771378795484186,5.643738942772649e-06,-2.1164022915140128e-06,0.5155463476271119,0.3107798925322028
1.1,7.9132258976497525,183.29704301743396,11.032658267600615,18.978897653251344,-104.03110760596428,26.458047379999996,269.3669295975404,-0.37981148723918773,0.046795770588148475,0.916955466080305,0.11289846430163951,-5.999999075356752e-07,1.499999768839188e-07,0.007189941165961497,0.010796472550406794,0.009003048176670992,0.007206359381061825,-2.4444435414099823e-06,7.499998844195938e-07,-0.3020209731150519,289.9673126090117,0,0.03166947008765464,-2.4444435414099823e-06,7.499998844195938e-07,-0.3020209731150519,0.25058382040152605
1.2,7.9331240694612575,183.59616122861277,11.032657508627914,18.978998849611397,-104.03110771596428,26.45804741,269.36996548834196,-0.3792951544070539,0.05081137035609629,0.9157039496244274,0.12263632059096038,-1.100000019960136e-06,3.000000248221117e-07,0.030358908015841776,0.01216700608883882,0.010147567767107471,0.008123552517476196,-5.0000011242446145e-06,1.5000004793819312e-06,0.2316896684988031,289.9701328629397,0,0.033024590523142314,-5.0000011242446145e-06,1.5000004793819312e-06,0.2316896684988031,0.2195795601821498
1.4,7.9728499029737065,184.19390487759242,11.032655908157869,18.979212245617447,-104.03110772596429,26.45804741,269.37636736852335,-0.3826834323646913,7.215694758899605e-07,0.9238795325111216,2.98883863154675e-07,-5.000003966415535e-08,0.0,0.03200940090692939,0.013753082086218518,0.011472839222933268,0.009186089824206331,5.249999901479904e-06,-1.500000124110559e-06,0.008252464455438086,289.97607995161025,0,0.0232518839479698,5.249999901479904e-06,-1.500000124110559e-06,0.008252464455438086,0.1257102544373227
1.5,7.9926679091990795,184.49250374910727,11.032655208893702,18.979305480839606,-104.0311078759643,26.45804744,269.37916442518815,-0.3808185954035452,0.03773336780130886,0.9193823009079203,0.09104710388859474,-1.5000000530562817e-06,3.0000002482211104e-07,0.02797056664803674,0.015138107537991505,0.012630834976006724,0.01011498151779184,-1.450000013392125e-05,3.0000002482211075e-06,-0.040388342588926485,289.9786783655832,0,0.03307764029469682,-1.450000013392125e-05,3.0000002482211075e-06,-0.040388342588926485,0.14048229986936547
1.7,8.032193803591676,185.08908923171782,11.032654272363558,18.979430351525615,-104.03110800596428,26.458047460000003,269.3829105457685,-0.3815680980437391,0.0291958227480168,0.9211893223370243,0.07045298362456838,-6.499999471998309e-07,1.0000000827403713e-07,0.018730602901655406,0.016717250008114342,0.013952089296938464,0.011175460090854666,4.250000529282255e-06,-1.0000000827403697e-06,-0.046199818731906685,289.98215842091685,0,0.030696670891702048,4.250000529282255e-06,-1.0000000827403697e-06,-0.046199818731906685,0.13200902807096176
1.8,8.051944571032259,185.38704932800138,11.032652864395484,18.979618080602037,-104.03110801596429,26.458047460000003,269.3885424180611,-0.38268343236457486,8.202248004157819e-07,0.9238795325110735,3.3974823657346837e-07,-1.0000007932831058e-07,0.0,0.05631872292610746,0.018095585712151606,0.015106208324197401,0.01210236466036499,5.4999986787151986e-06,-1.0000000827403704e-06,0.3758812002445202,289.98739023714865,0,0.035619672208242456,5.4999986787151986e-06,-1.0000000827403704e-06,0.3758812002445202,0.20669922777132999
2.0,8.091260993892764,185.98223801800413,11.032651941692434,18.979741107675473,-104.03110811596429,26.458047479999998,269.39223323026414,-0.3808198044700499,0.03772116106921616,0.9193828036008026,0.0910420286137731,-4.99999970315912e-07,9.999997274690034e-08,0.01845406101523395,0.019666373533383387,0.01642261976929318,0.01316036032247081,-1.999999454938008e-06,4.999998637345018e-07,-0.1893233095543676,289.99081891859686,0,0.033660517276295134,-1.999999454938008e-06,4.999998637345018e-07,-0.1893233095543676,0.23707117418111082
2.1,8.11089875640233,186.27944015899064,11.032650526082247,18.979929855700437,-104.0311081259643,26.45804749,269.3978956710131,-0.3535531044147922,0.14644730030078829,0.8535533240827944,0.3535535511637322,-1.0000007932831058e-07,1.0000000827403701e-07,0.056624407489493885,0.02103677908058616,0.017572140783913764,0.014084907018436704,3.999998909876011e-06,3.552713666889097e-13,0.381703464742599,289.9960791577521,0,0.04127632805173562,3.999998909876011e-06,3.552713666889097e-13,0.381703464742599,0.3051009399333279
2.3,8.149970353364552,186.87299398884537,11.032649617342646,18.980051020980582,-104.0311082359643,26.4580475,269.40153062941744,-0.3822896963466191,0.0173550440567127,0.9229302368847306,0.04187085330984048,-5.50000009980068e-07,5.0000004137018616e-08,0.01817479202173902,0.022617123875448862,0.018899162135076274,0.015153129355953327,-2.24999965325879e-06,-2.5000002068509227e-07,-0.1922480773387746,289.99945597153817,0,0.033283691200179204,-2.24999965325879e-06,-2.5000002068509227e-07,-0.1922480773387746,0.26845243142513686
2.4,8.169477368805234,187.16931929764107,11.032648197101226,18.980240386503215,-104.03110825596428,26.4580475,269.40721159509644,-0.3826834323630655,1.626270962913013e-06,0.9238795325104482,6.73623488976036e-07,-1.9999987443952686e-07,0.0,0.05680965679005107,0.023978365993324265,0.02004336672384288,0.01607494837202353,3.5000013554054085e-06,-5.000000413701857e-07,0.3863486476831202,290.0047334474413,0,0.035540993015900704,3.5000013554054085e-06,-5.000000413701857e-07,0.3863486476831202,0.2603322838087206
2.61,8.210200088920079,187.79054958741378,11.032647338435446,18.98035487527386,-104.03110833596429,26.4580475,269.4106462582159,-0.382683432276486,1.0759478605812447e-05,0.9238795324745859,4.456721961782706e-06,-3.8095241247252235e-07,0.0,0.01635553866397762,0.02552821249849898,0.021347627815169735,0.01712670982213937,-8.616787525380739e-07,0.0,-0.19263865774320696,290.0079241958587,0,0.03094994238083299,-8.616787525380739e-07,0.0,-0.19263865774320696,0.18792017515366854
2.7,8.2275961024729,188.0563308041621,11.03264666927262,18.980444096984126,-104.0311084159643,26.45804751,269.41332290952374,-0.38194307765533797,0.023792749223622338,0.9220938742268951,0.05741321824096955,-8.888889624358824e-07,1.111111203044853e-07,0.029740570087394797,0.02687906616102201,0.022485800887459863,0.018045432442998215,-5.643739444037314e-06,1.2345680033831658e-06,0.1487225713713015,290.0104107742459,0,0.03508778885421122,-5.643739444037314e-06,1.2345680033831658e-06,0.1487225713713015,0.15986029991582418
2.9,8.266105017613537,188.64590342175129,11.032644985814903,18.980668558012887,-104.03110844596429,26.45804751,269.42005674038654,-0.38268343236184815,2.0579950899344843e-06,0.923879532509944,8.524494775889841e-07,-1.4999997688391907e-07,0.0,0.03366915431399779,0.028435326404333855,0.023798837840007237,0.019106475218627284,3.6944449277598213e-06,-5.555556015224272e-07,0.019642921133015006,290.01666637717653,0,0.027879825807752178,3.6944449277598213e-06,-5.555556015224272e-07,0.019642921133015006,0.09982312546116674
3.0,8.285279844750933,188.94011988577776,11.032644014214293,18.980798104760844,-104.03110852596427,26.45804752,269.4239431428254,-0.3819433442583184,0.023788468222336115,0.922093983617012,0.05741146169290691,-7.999997819752018e-07,1.0000000827403701e-07,0.0388640243886584,0.029755250708852033,0.024913992578495005,0.02000860119694966,-6.499998050912821e-06,1.000000082740369e-06,0.051948700746606034,290.0202768055019,0,0.037672105745801585,-6.499998050912821e-06,1.000000082740369e-06,0.051948700746606034,0.16028894236549118
3.21,8.325314325280974,189.55666554280648,11.032642923797612,18.980943493651733,-104.0311085959643,26.458047540000003,269.428304809552,-0.37898349288949645,0.05308598256518157,0.9149491450986289,0.12814621514369645,-3.3333346241956215e-07,9.523810311813059e-08,0.020769841555214785,0.031278578124184435,0.026202843342570652,0.021052445841119146,2.22222056931257e-06,-2.267573883764962e-08,-0.08616277539735057,290.02432875171536,0,0.03800816810427689,2.22222056931257e-06,-2.267573883764962e-08,-0.08616277539735057,0.16444048453612853
3.3,8.34242789012978,189.82033303863912,11.032641454166498,18.98113944446681,-104.03110860596428,26.458047540000003,269.4341833340043,-0.38268343236461716,7.858074310259297e-07,0.923879532511091,3.254920953910327e-07,-1.1111088345690726e-07,0.0,0.06531693835856671,0.03260501828758953,0.027326823632598675,0.021963874626661266,2.469139766251725e-06,-1.0582011457570083e-06,0.49496774225946655,290.0297898255913,0,0.04368198384729005,2.469139766251725e-06,-1.0582011457570083e-06,0.49496774225946655,0.2217466025167048
3.5,8.380200290014729,190.40498125354344,11.032639883122403,18.981348917012756,-104.0311086659643,26.45804753,269.44046751038263,0.3813798703047402,0.03155953011214741,-0.9207317277747787,0.07620023657647623,-3.000000958763846e-07,-5.0000004137018504e-08,0.03142088189179046,0.03411302354262239,0.02860675846400686,0.023003133748375773,-9.444460620973858e-07,-2.5000002068509227e-07,-0.1694802823338811,290.03562777973156,0,0.042381945027964926,-9.444460620973858e-07,-2.5000002068509227e-07,-0.1694802823338811,0.24103126501603783
3.6,8.399015179887035,190.69661818922106,11.032638332166579,18.98155571112285,-104.0311086659643,26.45804753,269.4466713336856,-0.0,0.3826834323650898,0.0,0.9238795325112867,0.0,0.0,0.06203823302939776,0.03540647907323107,0.02970651061269828,0.023897337878304885,3.0000009587638433e-06,5.000000413701845e-07,0.30617351137607274,290.0413910843978,0,0.050915787753171585,3.0000009587638433e-06,5.000000413701845e-07,0.30617351137607274,0.28594915970223805
3.8,8.43637237982342,191.2784529096354,11.032636713975064,18.98177146999151,-104.03110872596429,26.45804753,269.4531440997454,-0.38268343235105634,4.281999603779585e-06,0.9238795325054738,1.7736623099547061e-06,-2.9999995376783815e-07,0.0,0.032363830299004845,0.03691614349232848,0.03099243055763453,0.024944432939596133,-1.4999997688391926e-06,0.0,-0.14837201365196478,290.0474042757344,0,0.044434821590260014,-1.4999997688391926e-06,0.0,-0.14837201365196478,0.21602889471797124
3.9,8.454971710298961,191.56862483514698,11.032635127998685,18.981982933508796,-104.0311087359643,26.45804753,269.4594880052638,-0.38268343236468394,7.281636389111957e-07,0.9238795325111187,3.016152549105626e-07,-1.0000007932831058e-07,0.0,0.0634390551840624,0.03821339640441086,0.03209940870003299,0.025847109798192436,1.999998744395274e-06,0.0,0.3107522488505753,290.0532977574857,0,0.049879263427134765,1.999998744395274e-06,0.0,0.3107522488505753,0.23931280165851815
4.11,8.493716494177955,192.17629692654444,11.032633400113038,18.98221331826159,-104.0311088059643,26.45804753,269.4663995478477,-0.38268343234833707,4.678518961233115e-06,0.9238795325043475,1.937906005539026e-06,-3.33333327078088e-07,0.0,0.03291210754241541,0.039686701040229054,0.03335911798537855,0.02687595280603895,-1.1111107035703666e-06,0.0,-0.14536641734117586,290.0597186163194,0,0.045926130154238194,-1.1111107035703666e-06,0.0,-0.14536641734117586,0.1944486237972527
4.2,8.510237680379584,192.43600418538512,11.032632080643488,18.982389247534815,-104.03110885596428,26.45804753,269.47167742604444,-0.3826834323504323,4.3761867014421974e-06,0.9238795325052155,1.812675883203485e-06,-5.555553646748506e-07,0.0,0.05864309107500462,0.04096760233419401,0.03445655455060086,0.02777371120165001,-2.469133751075144e-06,0.0,0.2858998170287695,290.0646218064302,0,0.05064706210204054,-2.469133751075144e-06,0.0,0.2858998170287695,0.19216606782618756
4.4,8.546680249525773,193.01151495687571,11.032629967015156,18.982671064645913,-104.03110887596429,26.458047550000003,269.4801319393774,-0.35355299842278803,0.1464475561864461,0.8535532801796878,0.3535536571551328,-1.0000007932831058e-07,1.0000000827403701e-07,0.042272566664678345,0.042421559739312144,0.03570496686285916,0.02879672778439018,2.277776426732698e-06,5.000000413701845e-07,-0.08185262205163131,290.07247612309766,0,0.04586513732101727,2.277776426732698e-06,5.000000413701845e-07,-0.08185262205163131,0.146454676816461
4.5,8.564788356106273,193.2984092997603,11.032628567802904,18.982857626279372,-104.03110890596429,26.45804752,269.48572878838115,0.35355432946565696,0.1464443427477344,-0.8535537621467234,0.3535524935825632,-2.999999537678388e-07,-3.0000002482211236e-07,0.055968490037799,0.04366661826314703,0.03677647502497365,0.029676371473803902,-1.999998744395289e-06,-4.000000330961508e-06,0.13695923373120708,290.07767566529503,0,0.05233116815317971,-1.999998744395289e-06,-4.000000330961508e-06,0.13695923373120708,0.1688070541998318
4.7,8.600708917504505,193.87041214631236,11.03262659133134,18.98312115582123,-104.03110893596428,26.45804751,269.4936346746369,0.3777422949357242,0.06129737371657864,-0.9119500099553972,0.14798841148716177,-1.4999997688391873e-07,-5.0000004137018504e-08,0.039529431278708636,0.045099919974039684,0.03801281014708713,0.03069315243844467,7.499998844195996e-07,1.2500001034254682e-06,-0.08219529379545176,290.0850203554719,0,0.04918361980264186,7.499998844195996e-07,1.2500001034254682e-06,-0.08219529379545176,0.13396400317224072
4.8,8.618559940091039,194.1554952277253,11.032624960274799,18.98333863002691,-104.03110894596429,26.45804751,269.5001589008074,-0.3826834323647061,7.080381958697999e-07,0.9238795325111278,2.932790234540707e-07,-1.0000007932831103e-07,0.0,0.06524226170483895,0.04634467561037784,0.03908911236338327,0.03157999874487175,4.999989755560788e-07,5.000000413701868e-07,0.257128304261304,290.09108147981544,0,0.053759743450147376,4.999989755560788e-07,5.000000413701868e-07,0.257128304261304,0.16208914991196818
5.0,8.65393847691513,194.72376135582684,11.03262281500733,18.983624665689078,-104.03110897596429,26.4580475,269.5087399706723,0.3777422728432959,0.06129750985861937,-0.9119500008043908,0.14798846787903772,-1.4999997688391873e-07,-5.0000004137018504e-08,0.04290534932465558,0.04775603175225017,0.04031259762614503,0.032590137392584165,-2.499994877780383e-07,-2.5000002068509227e-07,-0.11168456190091672,290.0990534849445,0,0.052054018675861624,-2.499994877780383e-07,-2.5000002068509227e-07,-0.11168456190091672,0.15241062188752647
5.1,8.67150704665744,195.00691914633666,11.032621186177709,18.983841842972087,-104.03110897596429,26.4580475,269.51525528916255,-0.0,0.3826834323650898,0.0,0.9238795325112867,0.0,0.0,0.0651531849024425,0.04898102587773107,0.04137732027897131,0.03347099443750269,1.4999997688391926e-06,5.000000413701868e-07,0.22247835577786995,290.10510637674696,0,0.05718080305130622,1.4999997688391926e-06,5.000000413701868e-07,0.22247835577786995,0.17141853710595778
5.3,8.706314115033654,195.57122125711322,11.032618814184401,18.984158108746534,-104.03110901596429,26.458047479999998,269.52474326239604,0.37244671127014695,0.0879207408519529,-0.8991650067404972,0.21226323573680275,-2.0000001654807401e-07,-1.0000000827403701e-07,0.047439866167451286,0.050386106112853636,0.042602072467027643,0.03448649999483975,-1.000000082740369e-06,-5.000000413701845e-07,-0.08856659367495598,290.11392098657706,0,0.05414368975099506,-1.000000082740369e-06,-5.000000413701845e-07,-0.08856659367495598,0.13438016954336096
5.4,8.723584579283342,195.85234049737906,11.032617185100571,18.98437531992372,-104.0311090259643,26.45804749,269.53125959771165,-0.353553145324315,0.14644720153697044,0.8535533410280061,0.35355351025439147,-1.0000007932831015e-07,1.0000000827403657e-07,0.06516335315609433,0.051590236315448956,0.043654550139384254,0.03536101544717636,9.999993721976333e-07,2.000000165480725e-06,0.17723486988642945,290.1199748767468,0,0.06663103445194324,9.999993721976333e-07,2.000000165480725e-06,0.17723486988642945,0.23489965188950893
5.61,8.759484089632265,196.44038273173368,11.032614557124074,18.984725716790145,-104.0311090559643,26.458047469999997,269.5417715037043,0.3662636377552086,0.11089435091765289,-0.8842378776123531,0.2677251695087242,-1.428571208418275e-07,-9.523810311813059e-08,0.0500566952030654,0.05295391183604649,0.04485005027667137,0.036356660153509426,-2.0408115006436844e-07,-9.297052923436533e-07,-0.07193646644299488,290.12974082760604,0,0.06218927579853915,-2.0408115006436844e-07,-9.297052923436533e-07,-0.07193646644299488,0.25280166192733267
5.7,8.774776620370528,196.69142112358423,11.032612186927436,18.98504174300863,-104.03110906596427,26.458047479999998,269.55125229025896,-0.35355312609273465,0.14644724796588396,0.8535531249485458,0.3535540319156969,-1.1111088345690726e-07,1.1111112030448584e-07,0.10534207282957056,0.05413609447985025,0.04588962520427273,0.037224484218743234,3.527359709435589e-07,2.292769149140186e-06,0.6142819736278361,290.1385488713889,0,0.07463506790177836,3.527359709435589e-07,2.292769149140186e-06,0.6142819736278361,0.36853721328935485
5.9,8.808320457511428,197.24711973558604,11.032610039707853,18.985328038952865,-104.0311090959643,26.458047479999998,269.559841168586,-0.38268343236309726,1.6135056818385652e-06,0.9238795325104615,6.683359364275642e-07,-1.5000011899246588e-07,0.0,0.04294439163516014,0.05547407785753409,0.04707000756522937,0.038212283098008615,-1.9444617767779293e-07,-5.555556015224287e-07,-0.31198840597205185,290.1465283387407,0,0.07629479824295385,-1.9444617767779293e-07,-5.555556015224287e-07,-0.31198840597205185,0.3692970611314411
6.0,8.824993027302614,197.52382540388928,11.032607297987186,18.98569360170848,-104.0311090959643,26.458047469999997,269.5708080512544,0.2705980500730306,0.2705980500730306,-0.6532814824382164,0.6532814824382164,0.0,-1.0000000827403746e-07,0.10966882668412875,0.05661630927042727,0.04808114862447598,0.03906065538954061,1.5000011899246642e-06,-1.0000000827403782e-06,0.6672443504896884,290.15671711864167,0,0.07923772853452378,1.5000011899246642e-06,-1.0000000827403782e-06,0.6672443504896884,0.37229108424612317
6.2,8.857925325596879,198.07488797572614,11.032603624886942,18.986183348407558,-104.03110908596429,26.458047469999997,269.5855004522268,-3.144075182617678e-07,0.38268343236501406,1.3023185817606944e-07,0.9238795325112554,5.000003966415529e-08,0.0,0.07346200486210812,0.057927396410468665,0.04924567550854967,0.04004021333535707,2.500001983207762e-07,5.000000413701869e-07,-0.181034109110103,290.1703671770399,0,0.074404599179481,2.500001983207762e-07,5.000000413701869e-07,-0.181034109110103,0.2658397689135693
6.3,8.874209291753468,198.34922038768065,11.032602005603277,18.98639925289643,-104.0311090959643,26.458047469999997,269.59197758689294,-0.3826834323647005,7.13185932564033e-07,0.9238795325111254,2.9541128580834225e-07,-1.0000007932831103e-07,0.0,0.06477134666113239,0.05906251299168166,0.05025750431500725,0.04089361608752771,-1.5000011899246686e-06,0.0,-0.08690658200975757,290.1763848332131,0,0.07870522905621198,-1.5000011899246686e-06,0.0,-0.08690658200975757,0.23689985779062672
6.5,8.906454940193118,198.89542650167127,11.032597946781973,18.986940429070128,-104.0311090959643,26.458047450000002,269.6082128721038,0.2705980500729746,0.2705980500729746,-0.6532814824382397,0.6532814824382397,0.0,-9.999997274690022e-08,0.08117642605441226,0.06034552400415032,0.051405447930802414,0.04186454128977753,5.000003966415548e-07,-4.999998637345006e-07,0.08202539696639928,290.1914684870879,0,0.07411180658724285,5.000003966415548e-07,-4.999998637345006e-07,0.08202539696639928,0.12570516101410797
6.6,8.922380280208925,199.16727592796997,11.032596335593448,18.987155254206858,-104.03110910596428,26.45804744,269.6146576262057,0.35355358684537186,0.1464461356113515,-0.8535533157986516,0.3535535711634108,-9.999979511121673e-08,-1.0000000827403746e-07,0.0644475410189218,0.06145556443784358,0.05240245070129401,0.042710219884320735,-9.99997951112171e-07,-3.552713723799139e-13,-0.16728885035490515,290.197456127807,0,0.07227631175617058,-9.99997951112171e-07,-3.552713723799139e-13,-0.16728885035490515,0.13433270645972842
6.8,8.953906027727673,199.70840710895135,11.032592000507732,18.987733265635786,-104.03110907596428,26.45804744,269.63199796907355,-7.991878221572253e-07,0.38268343236460095,3.3103443482058954e-07,0.9238795325110843,1.4999997688391873e-07,0.0,0.08670171433919896,0.06270934469942893,0.05353309362141797,0.04367212398586851,1.2499988599756762e-06,5.000000413701869e-07,0.11127086660138567,290.21356663448205,0,0.07829102873049495,1.2499988599756762e-06,5.000000413701869e-07,0.11127086660138567,0.14751179088138894
6.9,8.969458628665379,199.9776648134484,11.032590393394464,18.987947547404808,-104.03110908596429,26.45804744,269.6384264221442,-0.3826834323646945,7.185867698514771e-07,0.923879532511123,2.976483858609662e-07,-1.0000007932831015e-07,0.0,0.06428453070668604,0.0637933100241376,0.05451464726166588,0.044509740162622054,-2.500000562122276e-06,0.0,-0.22417183632512805,290.2195392033472,0,0.09901843192783921,-2.500000562122276e-06,0.0,-0.22417183632512805,0.3110437325056913
7.1,9.00024149612758,200.51350461616315,11.032585651147887,18.988579846948358,-104.0311090959643,26.45804743,269.6573954084508,0.35355350979984684,0.14644632161626958,-0.8535534919985309,0.35355314577922736,-5.0000039664155517e-08,-5.000000413701873e-08,0.09484493153280515,0.06501673121723182,0.05562728287109756,0.04546223841465238,2.5000019832077404e-07,-2.5000002068509455e-07,0.15280200413059614,290.23716307877277,0,0.09476545214933245,2.5000019832077404e-07,-2.5000002068509455e-07,0.15280200413059614,0.41921676234966
7.2,9.015528111469495,200.78006289936673,11.032581030811835,18.989195891755163,-104.0311090559643,26.45804743,269.67587675265486,-9.997969831093222e-07,0.38268343236432467,4.141294700228996e-07,0.9238795325109699,4.000000330961463e-07,0.0,0.18481344204076225,0.06607364593732915,0.05659277394202757,0.046291457138313605,4.500000727602994e-06,5.000000413701847e-07,0.8996851050795661,290.2543340374699,0,0.11744979061164054,4.500000727602994e-06,5.000000413701847e-07,0.8996851050795661,0.7108441180777825
7.4,9.04542095606709,201.31039699503822,11.03257887167973,18.989483776036003,-104.03110908596429,26.45804743,269.6845132810801,-0.38268343236311914,1.604602007867366e-06,0.9238795325104705,6.646479139137927e-07,-1.4999997688391873e-07,0.0,0.0431826421262826,0.06727995831508429,0.05770005437702532,0.047245781202832314,-2.7500000499003228e-06,0.0,-0.7081539995723976,290.26235828146406,0,0.12668086794783523,-2.7500000499003228e-06,0.0,-0.7081539995723976,0.7514225977273141
7.5,9.060322776264119,201.57414923718915,11.032573868594563,18.99015085405817,-104.0311090559643,26.45804742,269.7045256217452,0.06129842043732811,0.3777421250784606,-0.14798884505307144,0.9119499395980875,2.999999537678388e-07,-1.0000000827403746e-07,0.20012340665061928,0.06830887127866177,0.05864887947814621,0.048066270796967875,4.499999306517591e-06,-1.0000000827403782e-06,1.5694076452433725,290.28095195093925,0,0.12193045085173145,4.499999306517591e-06,-1.0000000827403782e-06,1.5694076452433725,0.8083001332033612
7.71,9.090982782263417,202.1248939586155,11.0325680704989,18.990923933479888,-104.03110903596428,26.45804742,269.7277180043966,-3.983550458334108e-07,0.3826834323649683,1.6500406262391126e-07,0.9238795325112366,9.523817078886733e-08,0.0,0.11043991738769626,0.06946829965722276,0.05972342607164024,0.04899881830476424,-9.750561094236737e-07,4.7619051559065465e-07,-0.4270642345853478,290.3025004721643,0,0.1095373253812083,-9.750561094236737e-07,4.7619051559065465e-07,-0.4270642345853478,0.6801180808219691
7.8,9.103900002006233,202.35960620296817,11.032566470909865,18.991137212018042,-104.03110904596429,26.45804742,269.7341163605413,-0.3826834323646908,7.219668962971143e-07,0.9238795325111215,2.9904848007728155e-07,-1.1111119925367871e-07,0.0,0.07109284605222568,0.07048206763555227,0.060667999659597814,0.049821684414331824,-2.292770778250515e-06,0.0,-0.43718968150522936,290.30844536701704,0,0.1124435330578134,-2.292770778250515e-06,0.0,-0.43718968150522936,0.6569129794153354
8.0,9.132299041033836,202.87829479190856,11.03256032851913,18.9919561974493,-104.0311090259643,26.458047399999998,269.758685923479,0.14644632480785522,0.3535535084778518,-0.35355339831601207,0.8535533873944108,9.999993721976343e-08,-1.0000000827403701e-07,0.12284781468849804,0.07160791985728485,0.061722488352241575,0.05074369500744337,1.0555556823672098e-06,-5.000000413701845e-07,0.2587748431813615,290.3312738038307,0,0.09953072936631112,1.0555556823672098e-06,-5.000000413701845e-07,0.2587748431813615,0.42497430055975355
8.11,9.147602965372592,203.16184574156526,11.032558741392917,18.992167814277835,-104.03110904596429,26.458047399999998,269.765034428335,-0.3826834323634689,1.4552701359804813e-06,0.9238795325106154,6.027926272844037e-07,-1.8181806767229825e-07,0.0,0.057713680509282196,0.0725770680423689,0.0626356087429038,0.05154542713518119,-2.5619818626551193e-06,9.090909843094321e-07,-0.5921284925383289,290.3371724765445,0,0.08895383957912598,-2.5619818626551193e-06,9.090909843094321e-07,-0.5921284925383289,0.4813867622651021
8.3,9.173770649340844,203.64867307169013,11.032552302321976,18.993026357069724,-104.03110901596429,26.458047399999998,269.79079071209173,-5.380508687865243e-07,0.3826834323648682,2.22867967097898e-07,0.923879532511195,1.578947125093872e-07,0.0,0.1355593881932658,0.07366833091626623,0.0636693805135895,0.05245653202166398,1.7879620009562274e-06,0.0,0.409714250968332,290.36110391780744,0,0.10310449152246459,1.7879620009562274e-06,0.0,0.409714250968332,0.4826758126140174
8.41,9.18859163886407,203.92879124602558,11.032550719546593,18.993237393787382,-104.03110903596428,26.458047399999998,269.7971218136214,-0.3826834323634599,1.4592704732029246e-06,0.9238795325106116,6.044496212159881e-07,-1.8181806767229825e-07,0.0,0.05755546845152438,0.07460778783878587,0.06456469330546175,0.05324887973887542,-3.088298001651702e-06,0.0,-0.7091265431067438,290.3669865160077,0,0.12852425140278131,-3.088298001651702e-06,0.0,-0.7091265431067438,0.6471218606196623
8.6,9.21392585152773,204.40959219755445,11.03254398185657,18.994135752457247,-104.03110897596429,26.458047389999997,269.82407257371744,0.03156291533474518,0.3813795901496616,-0.0762016680773976,0.9207316093059205,3.1578942501877737e-07,-5.2631583302124927e-08,0.14184610576864437,0.07564969657842993,0.06556409463903501,0.054137280659067144,2.618986803637247e-06,-2.7700833316907927e-07,0.44363493324800113,290.3920282079506,0,0.1255701227538038,2.618986803637247e-06,-2.7700833316907927e-07,0.44363493324800113,0.7356997389366449
8.7,9.227148546402274,204.6610771556343,11.032537733191218,18.99496890783755,-104.03110893596428,26.458047379999996,269.8490672351264,0.04675677700591119,0.3798162887646578,-0.11288231262598687,0.9169574548959568,4.0000003309614983e-07,-1.0000000827403746e-07,0.249946614089823,0.07658244039786896,0.06646480637131402,0.05494160766689506,8.421060807737275e-07,-4.73684249719127e-07,1.0810050832117901,290.4152526732654,0,0.14179407885476922,8.421060807737275e-07,-4.73684249719127e-07,1.0810050832117901,0.943317107798768
8.9,9.252720053479441,205.16074781199663,11.032535586039355,18.995255194752644,-104.03110895596427,26.458047370000003,269.85765584257933,0.37244651098022347,0.08792158930401561,-0.899164923777407,0.21226358717708627,-9.9999937219763e-08,-4.99999686098815e-08,0.042943037264535404,0.07758826859131773,0.0674424765335636,0.05581851798545534,-2.4999998515795507e-06,2.500001983207785e-07,-1.0350178841264324,290.4232330893878,0,0.16260225386275867,-2.4999998515795507e-06,2.500001983207785e-07,-1.0350178841264324,0.8626949382943788
9.02,9.26797369759206,205.45840883930293,11.032529085664294,18.996121911427437,-104.0311089159643,26.458047370000003,269.8836573428231,-7.106351124634463e-07,0.3826834323647032,2.943547014806428e-07,0.9238795325111266,3.3333312406588057e-07,0.0,0.21667916869792853,0.07846381615108775,0.06829929815508917,0.05659051355284391,3.611108844047053e-06,4.166664050823485e-07,1.4478010952782854,290.4473935046702,0,0.14665230127980955,3.611108844047053e-06,4.166664050823485e-07,1.4478010952782854,0.9729679529185198
9.2,9.290330686919248,205.90183946278617,11.032521813828836,18.997091489488387,-104.03110886596428,26.458047360000002,269.91274468465156,0.03770791846475019,0.38082111586942324,-0.09103654855077774,0.9193833462821615,2.7777784023581105e-07,-5.555556015224292e-08,0.16159634349151045,0.07944554750636511,0.0692670965178035,0.0574667329161815,-3.086404657226089e-07,-3.0864200084579447e-07,-0.30601569559121206,290.4744216367218,0,0.12668925818482119,-3.086404657226089e-07,-3.0864200084579447e-07,-0.30601569559121206,0.844801992037131
9.3,9.302429424956925,206.14658222417873,11.032520261420265,18.9972984772979,-104.03110886596428,26.458047360000002,269.918954318937,-0.0,0.3826834323650898,0.0,0.9238795325112867,0.0,0.0,0.06209634285426003,0.0802879439218486,0.07010386322621828,0.05822808716031973,-2.777778402358071e-06,5.555556015224213e-07,-0.9950000063724901,290.48019172159485,0,0.1305402112935894,-2.777778402358071e-06,5.555556015224213e-07,-0.9950000063724901,0.8136656068255519
9.5,9.326320815565348,206.63257072314389,11.032512754850334,18.99829935328867,-104.03110882596428,26.458047360000002,269.94898059866,-6.153806715153361e-07,0.3826834323648,2.548990201637549e-07,0.9238795325111667,2.0000001654807491e-07,0.0,0.15013139861508815,0.08120652009004972,0.07102407136907947,0.05906997181409999,1.0000000827403782e-06,0.0,0.4401752788041422,290.5080928303364,0,0.11706431568272649,1.0000000827403782e-06,0.0,0.4401752788041422,0.6112072756046125
9.6,9.337935140391405,206.87379486130766,11.032511199905265,18.99850667929803,-104.03110883596429,26.458047360000002,269.95520037894084,-0.3826834323646677,7.426952590938654e-07,0.923879532511112,3.076344490734629e-07,-1.0000007932831103e-07,0.0,0.06219780280844156,0.08202597269645638,0.07185156439285412,0.05983091070745085,-3.00000095876387e-06,0.0,-0.879335958066469,290.5138724525532,0,0.0959842387425802,-3.00000095876387e-06,0.0,-0.879335958066469,0.7192836489472818
9.8,9.360845344154637,207.35264931030852,11.032503734920732,18.99950201056899,-104.03110881596427,26.45804735,269.9850603170696,0.0879222821754455,0.3724463474163995,-0.21226376831827434,0.8991648810160292,1.0000007932831015e-07,-5.0000004137018285e-08,0.1492996906438285,0.08294083951547801,0.07278343185169686,0.0606925334458658,1.0000007932831006e-06,-2.500000206850901e-07,0.4355094391769324,290.54161950650985,0,0.11314270469718149,1.0000007932831006e-06,-2.500000206850901e-07,0.4355094391769324,0.6119763615089102
9.91,9.373060919438764,207.61395197282562,11.032502189531865,18.999708062417888,-104.03110883596429,26.45804735,269.9912418725366,-0.38268343236338015,1.4945757105241019e-06,0.9238795325105785,6.190735293370621e-07,-1.818183260514749e-07,0.0,0.056195958790733254,0.08372514865487878,0.07358952723912164,0.0614420606679066,-2.5619855034526047e-06,4.54545492154714e-07,-0.8463975623008704,290.5473637173286,0,0.13624998010243367,-2.5619855034526047e-06,4.54545492154714e-07,-0.8463975623008704,0.7594995117781015
10.11,9.39493475974034,208.08523338561238,11.032494795098234,19.000693986902068,-104.03110881596427,26.45804735,270.02081960706204,-3.1235666971530213e-07,0.3826834323650151,1.2938236889375065e-07,0.9238795325112558,1.0000007932831103e-07,0.0,0.14788867262723268,0.08458940183372558,0.074485910879408,0.06228024106459432,1.4090920268989345e-06,0.0,0.4584635691824988,290.57484903605024,0,0.13265966888016292,1.4090920268989345e-06,0.0,0.4584635691824988,0.8167076137898714
10.21,9.405735787365085,208.31900697273568,11.032488153403843,19.0015795461542,-104.0311087359643,26.45804735,270.04738638462607,-1.3910294968912103e-06,0.38268343236360886,5.761832832715153e-07,0.9238795325106733,7.999997819751912e-07,0.0,0.26566777564027766,0.08532791893576652,0.07525942689753529,0.06300786178254435,6.999997026468702e-06,0.0,1.177791030130433,290.59953672980345,0,0.15535626029107902,6.999997026468702e-06,0.0,1.177791030130433,1.166678527957199
10.4,9.425366386201663,208.75970075385504,11.032486051707124,19.001859772383284,-104.03110874596427,26.45804735,270.0557931714985,-0.3826834323648587,5.494832054394765e-07,0.923879532511191,2.2760339603602416e-07,-5.2631471111166647e-08,0.0,0.044246246697136934,0.08614044401412616,0.07611956082856605,0.06382215459836403,-4.487532910980842e-06,0.0,-1.1653764681217962,290.6073489813647,0,0.17145088213717857,-4.487532910980842e-06,0.0,-1.1653764681217962,1.1235125951731955
10.5,9.435667165550717,208.9897959256961,11.032479482140932,19.00273571454228,-104.0311087059643,26.45804735,270.08207143626834,-7.03150653659663e-07,0.38268343236471136,2.912545371371008e-07,0.92387953251113,3.999997488790555e-07,0.0,0.26278264769814635,0.08683233451512792,0.0768599100553409,0.06452752208863244,4.5263121999022375e-06,0.0,2.185364010010102,290.6317690127364,0,0.15394081911805718,4.5263121999022375e-06,0.0,2.185364010010102,1.1844813023168266
10.7,9.45549506104809,209.4461108084199,11.03247264868753,19.00364684166242,-104.03110867596428,26.458047360000002,270.1094052498726,-0.06129955074948567,0.37774194165426234,0.14798920588301084,0.9119498810435226,1.5000011899246654e-07,5.000000413701873e-08,0.13666906802143378,0.0876038624811684,0.07769486351691365,0.06532829357242591,-1.2499981494329493e-06,2.5000002068509455e-07,-0.6305678983835651,290.65717030015657,0,0.12784049761220107,-1.2499981494329493e-06,2.5000002068509455e-07,-0.6305678983835651,1.0237509068674353
10.8,9.465070004626153,209.6723102387163,11.032471140228592,19.00384796952086,-104.03110868596428,26.458047360000002,270.1154390856258,-0.38268343236464114,7.655828756635172e-07,0.9238795325111009,3.1711481026698096e-07,-1.0000007932830926e-07,0.0,0.0603383575315766,0.08826975164990258,0.07842377332261315,0.06603196258105323,-2.5000019832077224e-06,-5.000000413701802e-07,-0.7633071048985609,290.66277759106913,0,0.13082866756713635,-2.5000019832077224e-06,-5.000000413701802e-07,-0.7633071048985609,0.9426337565226834
11.0,9.483839443315354,210.120742811271,11.032464381920187,19.004749077308276,-104.0311086659643,26.458047360000002,270.1424723192482,-3.417567300312573e-07,0.3826834323650004,1.4156027261119982e-07,0.9238795325112498,9.999993721976388e-08,0.0,0.13516616811216456,0.08901805507621403,0.07925350418417332,0.06683880992812632,1.0000000827403693e-06,0.0,0.37413905290294114,290.6878999737166,0,0.10257639163698558,1.0000000827403693e-06,0.0,0.37413905290294114,0.5649268322112851
11.1,9.49288128164905,210.34295602326654,11.032462902242775,19.00494636762985,-104.03110867596428,26.458047360000002,270.1483910288954,-0.3826834323646236,7.80472176104674e-07,0.9238795325110937,3.2328216044393756e-07,-9.999979511121673e-08,0.0,0.05918709647176022,0.08965505771539105,0.07996910959189021,0.06753973988859396,-1.9999973233098134e-06,0.0,-0.759790716404046,290.69340036876525,0,0.0861613901179235,-1.9999973233098134e-06,0.0,-0.759790716404046,0.5726676677790183
11.31,9.511415898771032,210.80520245661052,11.032456522376203,19.00579701650618,-104.0311086659643,26.458047379999996,270.1739104951854,-0.20118885611827597,0.32552980444270413,0.48571255707935784,0.7858986591722535,4.761895005295998e-08,9.523806928276181e-08,0.12152126804765034,0.09035196375312743,0.0807625074466056,0.0683225344960999,7.029464055436958e-07,4.535146156321973e-07,0.29682938845661844,290.71711637551107,0,0.10317217274207743,7.029464055436958e-07,4.535146156321973e-07,0.29682938845661844,0.5155833101961911
11.41,9.519894971479344,211.0232032194721,11.032455157524693,19.0059789967076,-104.03110868596428,26.458047389999997,270.179369901228,-0.37244586253405954,0.08792433615829193,0.8991646301932615,0.21226483081706968,-1.9999987443952776e-07,1.0000000827403746e-07,0.054594060425756846,0.09094282850662144,0.0814449891449719,0.0690011260750988,-2.476188244924886e-06,4.761938991275661e-08,-0.6692720762189374,290.7221900136744,0,0.12507322908142401,-2.476188244924886e-06,4.761938991275661e-08,-0.6692720762189374,0.6393138579284503
11.6,9.535676161870052,211.43359810560466,11.032448251391836,19.00689981442173,-104.0311086259643,26.458047389999997,270.20699443265187,-1.0033249534153447e-06,0.3826834323643193,4.1559080317129635e-07,0.9238795325109677,3.1578942501877737e-07,0.0,0.14539227065208624,0.09160365805052126,0.08222047566586108,0.06977862710961463,2.714680523464771e-06,-5.263158330212512e-07,0.47788531698068226,290.74786271607536,0,0.1206516662520823,2.714680523464771e-06,-5.263158330212512e-07,0.47788531698068226,0.6850625408227866
11.7,9.5438158112486,211.64757386401845,11.032442134605592,19.00771538592109,-104.03110858596429,26.458047389999997,270.23146157763273,-7.55200175317002e-07,0.3826834323646533,3.128141549225457e-07,0.923879532511106,4.0000003309614983e-07,0.0,0.24467144980860753,0.09214767183167402,0.08286929445573826,0.0704345478357782,8.421060807737275e-07,0.0,0.9927917915652165,290.7706014226675,0,0.1481204058592342,8.421060807737275e-07,0.0,0.9927917915652165,1.1185537381514483
11.91,9.559872808019287,212.09233335092716,11.03244018794327,19.007974940897366,-104.03110861596429,26.458047389999997,270.23924822692095,-0.3826834323626655,1.7797373862852288e-06,0.9238795325102827,7.371913629047822e-07,-1.428571208418269e-07,0.0,0.03707928232486087,0.09274864623338472,0.08359847005323569,0.07117808700421105,-2.5850340663713074e-06,0.0,-0.98853413087498,290.7778380719711,0,0.16408613436138778,-2.5850340663713074e-06,0.0,-0.98853413087498,1.1091415860534939
12.0,9.566703632673136,212.28102409047852,11.032434363481533,19.008751535795614,-104.03110856596427,26.458047389999997,270.2625460738684,-9.91378883987445e-07,0.38268343236433755,4.1064257919723423e-07,0.9238795325109752,5.555556804716221e-07,0.0,0.2588649660828604,0.09332826404694015,0.08431873972716113,0.0719211527531561,7.760142236816113e-06,0.0,2.464285375088888,290.7994904250776,0,0.14037551309466528,7.760142236816113e-06,0.0,2.464285375088888,1.1211480612742577
12.2,9.581093018782694,212.696166348446,11.032427642346386,19.00964768714853,-104.03110854596429,26.458047389999997,270.2894306144558,-3.4364691838206086e-07,0.38268343236499935,1.423432142615418e-07,0.9238795325112493,9.999993721976388e-08,0.0,0.1344227029369454,0.09389294447932917,0.08502963655377771,0.07265910143306864,-2.277778716259299e-06,0.0,-0.6222113157295773,290.82447647830537,0,0.1463822760501251,-2.277778716259299e-06,0.0,-0.6222113157295773,1.4183219034970176
12.4,9.594515983372272,213.10549604073105,11.03242630038817,19.00982661491065,-104.03110856596427,26.458047389999997,270.2947984473195,-0.3826834323628225,1.7211395659302423e-06,0.9238795325103477,7.129193509886143e-07,-9.9999937219763e-08,0.0,0.026839164318630395,0.0943599480536387,0.0856301992807926,0.07328870456540708,-9.99999372197629e-07,0.0,-0.5379176930915721,290.82946530369304,0,0.1498762677460798,-9.99999372197629e-07,0.0,-0.5379176930915721,1.660927124885094
12.5,9.601191928448953,213.30795839382168,11.032419432756555,19.010742299125937,-104.03110850596428,26.458047389999997,270.3222689737781,-1.0089497828086466e-06,0.3826834323643106,4.1792068379202516e-07,0.9238795325109641,5.999999075356776e-07,0.0,0.2747052645855784,0.09487948354007866,0.08631268398083518,0.07401110616961218,6.99999844755443e-06,0.0,2.478661002669489,290.8549963672669,0,0.12491450299332704,6.99999844755443e-06,0.0,2.478661002669489,1.2475769513803103
12.6,9.607457922159618,213.50894039868865,11.032418069025535,19.01092412992862,-104.03110851596429,26.458047389999997,270.32772389785856,-0.38268343236454094,8.468314607160214e-07,0.9238795325110594,3.507690761192434e-07,-1.0000007932831103e-07,0.0,0.054549240804817795,0.09531419769781876,0.08689731222790886,0.0746363279393195,-6.99999986863991e-06,0.0,-2.2015602378076142,290.86006621492174,0,0.10891604714530331,-6.99999986863991e-06,0.0,-2.2015602378076142,1.282386125480526
12.8,9.619577071841674,213.90642769994,11.032411366218419,19.011817837544083,-104.03110846596428,26.458047370000003,270.35453512632245,0.07236743713335826,0.37577860962238635,-0.1747121400482212,0.9072094899816615,2.500000562122282e-07,-9.999997274689978e-08,0.13405614231942237,0.09572221674108268,0.08746503633894713,0.07525225631546481,1.7500006777026869e-06,-4.999998637344963e-07,0.3975345075730207,290.88498493848095,0,0.1307093828652583,1.7500006777026869e-06,-4.999998637344963e-07,0.3975345075730207,1.2561780060842511
12.9,9.625269910099068,214.10291533028746,11.032410005457827,19.011999272289735,-104.03110847596429,26.458047370000003,270.3599781686921,-0.38268343236453856,8.486800236763603e-07,0.9238795325110584,3.515347759683136e-07,-1.0000007932831103e-07,0.0,0.05443042369677206,0.09611682635633625,0.08802424895021412,0.07586349682952345,-3.500001355405405e-06,9.999997274690014e-07,-0.7962571862265059,290.8900438254061,0,0.12612294978309274,-3.500001355405405e-06,9.999997274690014e-07,-0.7962571862265059,0.992380318062297
13.1,9.636241296598227,214.491334887058,11.032403215165681,19.012904644575862,-104.03110843596428,26.458047370000003,270.3871393372758,-6.802944476458176e-07,0.3826834323647355,2.8178718662179497e-07,0.9238795325111401,2.0000001654807491e-07,0.0,0.13580584291844436,0.09654471035843233,0.0886486478281657,0.07655394376348384,1.500000479381935e-06,0.0,0.4068770961083629,290.91528820610984,0,0.12278757082989533,1.500000479381935e-06,0.0,0.4068770961083629,0.7659690236359316
13.2,9.641553366708463,214.6832495504536,11.0323969208382,19.013743888239777,-104.0311083759643,26.458047360000002,270.4123166471933,0.03156284314210375,0.3813795961243879,-0.07620163817422658,0.920731611780735,5.999999075356776e-07,-1.0000000827403746e-07,0.25177309917467117,0.0969032306849601,0.0891892753226485,0.07715924318468151,3.9999989098760404e-06,-1.0000000827403782e-06,1.1596725625622721,290.9386890300731,0,0.14250606839499871,3.9999989098760404e-06,-1.0000000827403782e-06,1.1596725625622721,1.0406008204976358
13.4,9.651167994554648,215.06244600009956,11.032395027220899,19.0139963705467,-104.03110840596429,26.458047360000002,270.419891116401,-0.3826834323625277,1.8295923413346694e-06,0.9238795325102255,7.578419614374271e-07,-1.4999997688391807e-07,0.0,0.037872346038625236,0.09728469062881093,0.08978403680683116,0.07783329530554665,-3.749999422097958e-06,5.000000413701847e-07,-1.069503765680224,290.9457291277596,0,0.16059003957997012,-3.749999422097958e-06,5.000000413701847e-07,-1.069503765680224,0.9737686995920536
13.51,9.656338577888395,215.26835139763472,11.03238862938357,19.014849415523894,-104.03110832596428,26.458047370000003,270.44548246571685,-0.02378041067244037,0.3819438459719264,0.057408107445649725,0.922094192472728,7.272727874475463e-07,9.090909843094329e-08,0.23264863014405526,0.09759806220400342,0.09029138577981281,0.0784158455342482,7.9752069484679e-06,8.264463493722161e-07,1.7706934918675548,290.9695151665824,0,0.14406523810616656,7.9752069484679e-06,8.264463493722161e-07,1.7706934918675548,1.075730168514861
13.7,9.664546162985678,215.61953260223407,11.032381748995288,19.015766800628167,-104.03110829596429,26.458047370000003,270.47300401884496,-5.035395636106663e-07,0.3826834323648957,2.0857291643888015e-07,0.9238795325112064,1.5789471250938869e-07,0.0,0.14485027962163488,0.09793275480140733,0.09085613816365921,0.07907323323015704,-2.9967267102008376e-06,-4.784689391102291e-07,-0.4620965816969506,290.9950956062626,0,0.12144666180213097,-2.9967267102008376e-06,-4.784689391102291e-07,-0.4620965816969506,0.9292940381073057
13.8,9.668490282768719,215.80207290163648,11.0323804194494,19.01594407341333,-104.0311083059643,26.458047370000003,270.4783222023999,-0.38268343236451235,8.686050940960827e-07,0.9238795325110475,3.5978801036737137e-07,-1.0000007932830926e-07,0.0,0.05318183554947988,0.09820506598777795,0.09133707154724793,0.07964108590488175,-2.5789479183769428e-06,0.0,-0.9166844407215369,291.0000387412787,0,0.12439866462337446,-2.5789479183769428e-06,0.0,-0.9166844407215369,0.8874889999905081
14.0,9.675960042436229,216.16237186624852,11.032373485438518,19.016868608197697,-104.03110824596428,26.458047379999996,270.5060582459309,-0.03156489950568868,0.38137942593475616,0.07620241670834958,0.920731547347368,3.0000009587638593e-07,4.999996860988194e-08,0.13868021765489452,0.09848831966220925,0.09186428187020025,0.0802732615786774,2.000000876023483e-06,2.499998430494106e-07,0.4274919105270747,291.0258189607871,0,0.10590660258232917,2.000000876023483e-06,2.499998430494106e-07,0.4274919105270747,0.6209062614084938
14.1,9.679313416847155,216.34011451823014,11.032372169629513,19.01704404939818,-104.03110824596428,26.458047379999996,270.5113214819454,-0.0,0.3826834323650898,0.0,0.9238795325112867,0.0,0.0,0.05263236014513969,0.09872192395722806,0.09232453191940201,0.08083383285765658,-3.00000095876387e-06,-4.999996860988212e-07,-0.8604785750975513,291.0307111010009,0,0.0863773293059322,-3.00000095876387e-06,-4.999996860988212e-07,-0.8604785750975513,0.6975495027044232
14.3,9.68560271213369,216.69074666367496,11.032365160213516,19.017978638197775,-104.03110817596428,26.458047360000002,270.5393591459333,0.05307750098618917,0.3789846808200739,-0.12814270703920677,0.9149496364420459,3.499999934319912e-07,-9.999997274689978e-08,0.14018831993951078,0.09896222061801375,0.09282822622230094,0.08145710963543565,1.7499999671599467e-06,-4.999998637344963e-07,0.4377797989718531,291.0567721004194,0,0.10556626582615744,1.7499999671599467e-06,-4.999998637344963e-07,0.4377797989718531,0.6214995670976722
14.41,9.688622068063005,216.88081797993723,11.032363862105901,19.01815171921299,-104.03110817596428,26.45804735,270.54455157638967,0.2705980500727956,0.2705980500727956,-0.6532814824383137,0.6532814824383137,0.0,-9.090909843094329e-08,0.047203913239648496,0.09915171301379619,0.09325544342070329,0.08199489177138683,-3.1818181221090276e-06,8.264431196324123e-08,-0.8453127881805705,291.06159850719536,0,0.12937900432634147,-3.1818181221090276e-06,8.264431196324123e-08,-0.8453127881805705,0.7532359690022846
14.6,9.69346558297167,217.20444565163936,11.03235677859629,19.019096187161274,-104.0311080959643,26.45804735,270.5728856148382,-1.3042677024691534e-06,0.38268343236378777,5.402453713263974e-07,0.9238795325107474,4.2105251682905504e-07,0.0,0.1491265181501057,0.09934446603438205,0.09372812690230406,0.08260073569990488,2.2160658780476638e-06,4.784689391102291e-07,0.5364347626866183,291.0879354270619,0,0.1261887235283609,2.2160658780476638e-06,4.784689391102291e-07,0.5364347626866183,0.8022032079828184
14.7,9.695835299613698,217.37238167213866,11.032350334998537,19.019955333528454,-104.03110801596429,26.45804734,270.5986600058537,0.023777538389058,0.3819440247938451,-0.05740691770691777,0.9220942665431917,8.000000661922997e-07,-1.0000000827403746e-07,0.25774391015488707,0.09949227455971957,0.09412807707578016,0.08312315687887395,3.78947549363246e-06,-1.0000000827403782e-06,1.0861739200478175,291.11189343796747,0,0.14780214392329674,3.78947549363246e-06,-1.0000000827403782e-06,1.0861739200478175,1.1377961797068925
14.9,9.699535466057133,217.70326335739577,11.032348500950729,19.02019987323616,-104.03110801596429,26.45804734,270.6059961970847,-0.0,0.3826834323650898,0.0,0.9238795325112867,0.0,0.0,0.03668095615523706,0.09963471191624014,0.09456342150157762,0.08370368233690749,-4.000000330961477e-06,5.000000413701847e-07,-1.1053147699982442,291.11871269619814,0,0.16521080828992668,-4.000000330961477e-06,5.000000413701847e-07,-1.1053147699982442,1.082741808911361
15.0,9.70129819060087,217.86619431635535,11.032342294565181,19.021027391309204,-104.0311079459643,26.45804733,270.6308217392761,0.02712675699364735,0.38172077289875406,-0.06549238312514419,0.9215552823055025,6.999999868639886e-07,-1.0000000827403746e-07,0.24825542191365546,0.09974070355343675,0.09493585469428799,0.08421053359738837,6.99999986863991e-06,-1.0000000827403782e-06,2.1157446575841914,291.1417891067121,0,0.14385052233979617,6.99999986863991e-06,-1.0000000827403782e-06,2.1157446575841914,1.1592991497193106
15.2,9.703996999814072,218.1870002605127,11.032335582203427,19.021922372876354,-104.03110786596429,26.45804732,270.65767118629054,0.02377759568748756,0.38194402122669885,-0.057406941440704316,0.9220942650656302,4.0000003309614983e-07,-5.000000413701873e-08,0.13424723507228056,0.09983789184167227,0.0953456498633006,0.08478079190873947,-1.499999768839199e-06,2.5000002068509455e-07,-0.5700409342068765,291.16674714636184,0,0.11967907113788168,-1.499999768839199e-06,2.5000002068509455e-07,-0.5700409342068765,1.0366259314549675
15.3,9.704954927494258,218.34486098772135,11.032334524076218,19.02206345650435,-104.03110786596429,26.45804732,270.66190369513055,-0.0,0.3826834323650898,0.0,0.9238795325112867,0.0,0.0,0.04232508840004751,0.09990197120540874,0.09569033331662304,0.0852718705169859,-4.000000330961442e-06,5.000000413701802e-07,-0.9192214667223175,291.1706815317768,0,0.12045531223617142,-4.000000330961442e-06,5.000000413701802e-07,-0.9192214667223175,1.008211962454698
15.5,9.706460338638312,218.65546287267864,11.03232767974351,19.02297603419866,-104.03110781596428,26.458047309999998,270.6892810259598,0.03770786910868329,0.3808211207565721,-0.09103652810682561,0.9193833483064863,2.5000005621223044e-07,-5.000000413701873e-08,0.1368866541463381,0.09995122440330245,0.09606829029749393,0.08582399029420344,1.2500002810611566e-06,-2.5000002068509455e-07,0.47280782873145466,291.1961306803819,0,0.09784259590249608,1.2500002810611566e-06,-2.5000002068509455e-07,0.47280782873145466,0.6796927095361045
15.6,9.706816812881177,218.80819022595023,11.03232666568947,19.02311124140415,-104.03110782596428,26.458047309999998,270.69333724212447,-0.38268343236409713,1.1388449578658071e-06,0.9238795325108756,4.7172502703408483e-07,-1.0000007932831103e-07,0.0,0.04056216164656249,0.09997293977852725,0.09638905733920218,0.08630561424212638,-3.500001355405427e-06,5.000000413701891e-07,-0.9632449249977596,291.19990125381935,0,0.07813403926398815,-3.500001355405427e-06,5.000000413701891e-07,-0.9632449249977596,0.7465706833612458
15.8,9.707119049099216,219.1084638150948,11.032319906097456,19.024012520339117,-104.0311077359643,26.458047280000002,270.72037561017356,0.06129757279806371,0.37774226262977617,-0.1479884671092192,0.9119500009293638,4.499999306517542e-07,-1.4999997688391807e-07,0.13519184024545366,0.09997421356152555,0.09673493992112132,0.08683937464466097,2.7500000499003117e-06,-7.499998844195864e-07,0.4731483929944534,291.2250356908828,0,0.09868984724891797,2.7500000499003117e-06,-7.499998844195864e-07,0.4731483929944534,0.6778839441677145
15.91,9.706834856472451,219.2706541433393,11.032318924225029,19.02414343666268,-104.03110774596428,26.458047280000002,270.7243030998804,-0.382683432364031,1.1761681233647465e-06,0.9238795325108482,4.871847883743382e-07,-9.090890464656081e-08,0.0,0.03570445188023043,0.09995333948297797,0.09702713846033727,0.08730460551908056,-4.9173530481665255e-06,1.3636361534901713e-06,-0.904430803320216,291.22868665988085,0,0.11938716248842154,-4.9173530481665255e-06,1.3636361534901713e-06,-0.904430803320216,0.7565389275477841
16.1,9.7059819976854,219.54582189342418,11.032312031778934,19.025062429475398,-104.0311076659643,26.45804726,270.75187288426196,0.04675619622362444,0.37981636026127397,-0.11288210380817448,0.916957480602245,4.210525168290511e-07,-1.0526316660424887e-07,0.14510412832404748,0.0999066327047621,0.09734073047794992,0.08781979304988789,2.6945337972400448e-06,-5.540166663381483e-07,0.575787770756928,291.25431549996887,0,0.11653368369485331,2.6945337972400448e-06,-5.540166663381483e-07,0.575787770756928,0.7892356927214821
16.21,9.705263259919949,219.70223234012272,11.0323054215151,19.02594379798665,-104.0311075559643,26.45804724,270.77831393959957,0.03436520163209056,0.38113730114617644,-0.08296876384490103,0.9201464963894845,1.000000018145582e-06,-1.8181819686188659e-07,0.24037323034194452,0.09984478034386568,0.09760094225043041,0.08826240077774114,5.26315910287758e-06,-6.959548205239828e-07,0.8660827456172503,291.2788953958852,0,0.1426363941437062,5.26315910287758e-06,-6.959548205239828e-07,0.8660827456172503,1.173427263745315
16.4,9.703045862092933,219.96736217026677,11.032304172513635,19.026110331515284,-104.03110756596428,26.45804724,270.78330994545854,-0.3826834323644354,9.246162491474352e-07,0.9238795325110156,3.8298859043373104e-07,-5.263147111116714e-08,0.0,0.026294767678792002,0.0997485383140983,0.09788096169533952,0.08875817994251539,-5.540165732930325e-06,9.56937878220467e-07,-1.126728750858711,291.2835397858478,0,0.16199851217690037,-5.540165732930325e-06,9.56937878220467e-07,-1.126728750858711,1.1193890558824513
16.5,9.701828861754912,220.1043312027646,11.032297529878823,19.02699601615691,-104.03110746596428,26.458047200000003,270.8098804847074,0.07236660580784736,0.3757787697191388,-0.17471185554825705,0.9072095447707256,9.999999406318097e-07,-3.9999996204186916e-07,0.26570539248836744,0.09964476966963201,0.09811266741236986,0.08918426794452364,1.0526314117429618e-05,-3.999999620418635e-06,2.3941062480957207,291.3082404436475,0,0.14089850416237554,1.0526314117429618e-05,-3.999999620418635e-06,2.3941062480957207,1.2107002879422377
16.71,9.698344708932279,220.3861572640814,11.032290572839116,19.02792362145123,-104.03110735596428,26.45804717,270.83770864353687,0.050792971119191836,0.3792976186227505,-0.1226286993762754,0.9157049703268397,5.238095333143476e-07,-1.4285715467719527e-07,0.1325150420452046,0.09950067786733814,0.09836001912132392,0.08966106312434644,-2.2675733681783814e-06,1.2244895588793946e-06,-0.6342397640150587,291.3341105690157,0,0.11908287709166361,-2.2675733681783814e-06,1.2244895588793946e-06,-0.6342397640150587,1.124808507139074
16.8,9.696499134510947,220.5045198979427,11.03228968174713,19.028042433715985,-104.03110736596429,26.45804716,270.84127301147953,0.35355391256079216,0.14644534925931232,-0.8535536588282481,0.3535527430160662,-1.1111119925367871e-07,-1.1111112030448584e-07,0.039604088251760775,0.09935230133057407,0.09856548844255722,0.09007602485892605,-7.054674806311415e-06,3.5273371525232755e-07,-1.0323439310382663,291.33742417648364,0,0.12087746000288377,-7.054674806311415e-06,3.5273371525232755e-07,-1.0323439310382663,1.0915175824777776
17.01,9.691759390108839,220.775021494724,11.032282788754642,19.028961499380912,-104.0311072659643,26.458047129999997,270.86884498142734,0.055569014399258515,0.37862738153292513,-0.13415878348640686,0.9140868730080653,4.7619044791991416e-07,-1.4285715467719527e-07,0.13129509498959244,0.09916207755551003,0.09878111418036976,0.0905342874904145,2.796674510350431e-06,-1.5117159225099667e-07,0.4366238416087204,291.3630565437018,0,0.09685297746889467,2.796674510350431e-06,-1.5117159225099667e-07,0.4366238416087204,0.7288176987342668
17.11,9.68909882645845,220.90102607307088,11.032281907062586,19.029079058321695,-104.03110727596427,26.458047129999997,270.8723717496508,-0.3826834323637767,1.3098077064562132e-06,0.9238795325107428,5.425401161602843e-07,-9.99997951112185e-08,0.0,0.03526768223480378,0.09897340710166339,0.09895443003206371,0.09092626688935324,-5.761902430311449e-06,1.4285715467719832e-06,-0.960274127547907,291.3663352487338,0,0.07636172758326884,-5.761902430311449e-06,1.4285715467719832e-06,-0.960274127547907,0.812013722665632
17.3,9.683708004559598,221.13542212361364,11.032274991871045,19.030001083860547,-104.03110715596429,26.4580471,270.90003251581646,0.046755521722006595,0.3798164432943745,-0.11288179267038083,0.9169575189043576,6.315788500375488e-07,-1.578947125093872e-07,0.14558297981914906,0.09873562940045423,0.09913710351099563,0.09136517775913897,3.850413921835592e-06,-8.310248026809797e-07,0.580606829391287,291.3920505599148,0,0.09766214648249068,3.850413921835592e-06,-8.310248026809797e-07,0.580606829391287,0.7277000839607192
17.41,9.680133966942288,221.26811091169353,11.032274165254249,19.03011129943348,-104.03110717596428,26.4580471,270.9033389830044,-0.3826834323591143,2.7941573285955096e-06,0.9238795325088116,1.1573778609403305e-06,-1.8181806767229825e-07,0.0,0.03005879261763782,0.09850940945326947,0.09927994210672929,0.09173506623186649,-7.394517433725921e-06,1.435406477358073e-06,-1.0502198836501075,291.3951245109351,0,0.12391991191601559,-7.394517433725921e-06,1.435406477358073e-06,-1.0502198836501075,0.8733307944572765
17.6,9.6736196258525,221.49206935496062,11.032267225210568,19.031036638590876,-104.03110704596429,26.45804707,270.93109915772624,0.04330098993377521,0.38022576672197855,-0.10454213587240416,0.9179457132198364,6.842104707366594e-07,-1.578947499063733e-07,0.14610618274649437,0.09822707680330053,0.09942713469361862,0.0921488858935176,4.558044938994483e-06,-8.310249995072224e-07,0.6107757375202936,291.42093263659166,0,0.12185789860275657,4.558044938994483e-06,-8.310249995072224e-07,0.6107757375202936,0.9189022754353257
17.7,9.670022521075508,221.6072705583609,11.032260660612515,19.03191191833139,-104.03110690596426,26.458047039999997,270.95735754994166,0.04031355605475226,0.38055410470436896,-0.09733043214812707,0.9187383618684567,1.4000002579450964e-06,-3.000000248221177e-07,0.2625839221542548,0.0979523988472381,0.09954471957360063,0.09251208507411764,7.1578978720845225e-06,-1.4210527491574743e-06,1.1647773940776291,291.4453449065501,0,0.13843888619974212,7.1578978720845225e-06,-1.4210527491574743e-06,1.1647773940776291,1.1728360043529733
17.9,9.6617653346958,221.83212031178587,11.032259412731731,19.032078302435842,-104.03110693596429,26.458047039999997,270.9623490730753,-0.3826834323591903,2.7763477419745295e-06,0.9238795325088431,1.1500008886219467e-06,-1.5000011899246654e-07,0.0,0.02495761566819974,0.09762357565372479,0.0996591652198585,0.0929064531036941,-7.750001884687842e-06,1.5000001241105938e-06,-1.1881315324302795,291.4499855527394,0,0.1605491689252152,-7.750001884687842e-06,1.5000001241105938e-06,-1.1881315324302795,1.0552948818915133
18.01,9.657114711235522,221.95262027996372,11.032253129313991,19.032916091467776,-104.0311067659643,26.45804699,270.9874827440333,0.054544062856325216,0.3787763913149095,-0.13168720145863633,0.9144462103161521,1.5454544795416035e-06,-4.545454275599076e-07,0.22848791779985358,0.09731237714763837,0.09974652777099055,0.09324752051675962,1.541322362303658e-05,-4.132231159635412e-06,1.8502754739240757,291.473352520302,0,0.13890719503888982,1.541322362303658e-05,-4.132231159635412e-06,1.8502754739240757,1.1385675202436372
18.2,9.648360244593107,222.15543897824057,11.032246450329195,19.033806622773984,-104.03110661596429,26.458046950000004,271.0141986832195,0.049720548683571855,0.37943968749712914,-0.12004116622671245,0.9160477656768867,7.894737121348952e-07,-2.1052629581151559e-07,0.14061020624317927,0.09693339175138345,0.09982974220360068,0.09362735406022987,-3.9788461442458806e-06,1.2843112197283944e-06,-0.462514271350923,291.4981908692713,0,0.11239436153101008,-3.9788461442458806e-06,1.2843112197283944e-06,-0.462514271350923,0.9977354827267702
18.3,9.643368666812107,222.25947103435806,11.032245502921361,19.03393294381837,-104.03110661596429,26.458046940000003,271.01798831455113,0.2705980500725299,0.2705980500725299,-0.6532814824384238,0.6532814824384238,0.0,-1.0000000827403568e-07,0.03789631331642286,0.09658139897331125,0.09988799985330865,0.09395098057731582,-7.89473712134884e-06,1.1052628753747832e-06,-1.0271389292675495,291.5017142002557,0,0.11480304140751338,-7.89473712134884e-06,1.1052628753747832e-06,-1.0271389292675495,0.9461466553726414
18.5,9.632990328605343,222.46189603116898,11.03223900193363,19.03479974218248,-104.03110645596428,26.45804689,271.04399226547434,0.05773042538455539,0.37830385590773985,-0.13937919541363403,0.9133054420488813,8.000000661922997e-07,-2.5000002068509365e-07,0.130019754616058,0.09616052402079127,0.09993675755436562,0.09430597996037017,4.000000330961513e-06,-7.500000620552925e-07,0.46061720649817733,291.52589095806246,0,0.09649574448394194,4.000000330961513e-06,-7.500000620552925e-07,0.46061720649817733,0.6760419787118115
18.6,9.627419489827624,222.56027997522926,11.032238076908255,19.034923078899315,-104.03110645596428,26.458046879999998,271.04769236697945,0.2705980500725021,0.2705980500725021,-0.6532814824384353,0.6532814824384353,0.0,-1.0000000827403568e-07,0.037001015051031955,0.09576805374047476,0.09996587389351484,0.09461203613518468,-8.000000661922883e-06,1.5000001241105584e-06,-0.9301873956502472,291.5293311017284,0,0.08032932301773724,-8.000000661922883e-06,1.5000001241105584e-06,-0.9301873956502472,0.7378857929920828
18.8,9.615903215079353,222.75136889183602,11.032231229336595,19.035836088453877,-104.0311062659643,26.45804683,271.0750826536163,0.04909785465550515,0.3795207636993157,-0.11853906235848881,0.9162433526550058,9.499999009676719e-07,-2.4999998515795686e-07,0.13695143318415198,0.09529656452960902,0.09998248771091754,0.0949517120198953,4.7499995048383764e-06,-7.499998844196086e-07,0.4997520906656019,291.55479716280394,0,0.1161288352120097,4.7499995048383764e-06,-7.499998844196086e-07,0.4997520906656019,0.6895737825064983
18.9,9.609781834364338,222.8440653715732,11.032229734884123,19.03603534878359,-104.0311062659643,26.458046850000002,271.0810604635077,-0.2705980500721844,0.2705980500721844,0.6532814824385669,0.6532814824385669,0.0,2.0000001654807846e-07,0.05977809891419511,0.09486396994380951,0.09998244454274383,0.09524007543404914,-9.499999009676922e-06,4.500000017060449e-06,-0.7717333426995852,291.5603550828834,0,0.17820025456168423,-9.499999009676922e-06,4.500000017060449e-06,-0.7717333426995852,1.0444162953618688
19.1,9.597284254963672,223.02374177495693,11.032218890190409,19.037481307945505,-104.0311061559643,26.458046850000002,271.12443923836514,-1.1713879743501485e-06,0.38268343236403957,4.852047857754756e-07,0.9238795325108518,5.500000099800594e-07,0.0,0.21689387428721976,0.09434684456267525,0.09996573206722062,0.0955594646606184,2.750000049900258e-06,-1.0000000827403782e-06,0.7855788768651121,291.6006873165224,0,0.24654539589625618,2.750000049900258e-06,-1.0000000827403782e-06,0.7855788768651121,0.9200289459143669
19.2,9.590975716605666,223.11071371301512,11.032207880769125,19.038949230783388,-104.03110602596428,26.45804683,271.16847692350166,0.029178472985679212,0.38156942503521196,-0.07044578458009874,0.9211898729509655,1.3000001786167836e-06,-2.0000001654807846e-07,0.44037685136516785,0.09387451497732072,0.09993652941870262,0.09583001997259072,7.500001686367402e-06,-2.000000165480827e-06,2.2348297707795286,291.64163307054696,0,0.3030458214789533,7.500001686367402e-06,-2.000000165480827e-06,2.2348297707795286,0.9015322065803557
19.4,9.57767225072286,223.27890573501014,11.032188944433038,19.04147407559487,-104.03110618596429,26.458047020000002,271.24422226784606,-0.3469708476556451,0.1614244104331424,0.8376625493638572,0.3897112315377617,-8.000000661922997e-07,9.500000075490823e-07,0.3787267217219905,0.09331221880385601,0.09988650109500671,0.0961289947895865,-1.0500001224045453e-05,5.750000120485824e-06,-0.3082506482158878,291.71206252069277,0,0.35312382577196133,-1.0500001224045453e-05,5.750000120485824e-06,-0.3082506482158878,0.856470978764006
19.5,9.5707811062473,223.36011834377368,11.03217845809401,19.04287225413187,-104.03110612596427,26.458047110000003,271.28616762395603,-0.18057276852982207,0.3374019630529369,0.43594006160587917,0.8145610187583014,6.000001917527612e-07,9.000000034120475e-07,0.4194535610997659,0.09280057928369201,0.0998281572168492,0.09638163378085982,1.400000257945041e-05,-5.000000413703404e-07,0.40726839377774804,291.7510651955872,0,0.34224055470435794,1.400000257945041e-05,-5.000000413703404e-07,0.40726839377774804,0.994736406309545
19.7,9.556223624863101,223.5167587098137,11.032162949687992,19.044940041601034,-104.0311063359643,26.458047370000003,271.34820124803105,-0.34529952480072046,0.16496923221795948,0.8336281441031526,0.39826813574895376,-1.0500001224045301e-06,1.3000000009810766e-06,0.31016812037506836,0.09219361834649914,0.09974484431105442,0.09666007460234158,-8.250001570786487e-06,1.9999999878451525e-06,-0.5464272036234896,291.80874845806085,0,0.32554112766605287,-8.250001570786487e-06,1.9999999878451525e-06,-0.5464272036234896,0.7421726493952506
19.8,9.548520400562873,223.59217950532195,11.032158887750018,19.045481633330844,-104.03110618596429,26.458047370000003,271.36444899992534,-4.264649524321951e-06,0.3826834323511699,1.76647567168889e-06,0.923879532505521,1.5000000530562615e-06,0.0,0.16247751894297605,0.09164312933255915,0.09965739566628207,0.09689469622068791,2.5500001754607554e-05,-1.300000000981058e-05,-1.476906014320902,291.8238569855823,0,0.31508298687246994,2.5500001754607554e-05,-1.300000000981058e-05,-1.476906014320902,0.7414099165534928
20.0,9.532953103082964,223.73720556134907,11.03214104376421,19.04786083143867,-104.03110629596429,26.45804758,271.43582494316007,-0.3274128737678467,0.19810961485311887,0.7904453374393371,0.47827770083314725,-5.500000099800692e-07,1.049999980295983e-06,0.3568797161736383,0.09099204985551296,0.09954085024624253,0.09715249167403954,-1.025000031518169e-05,5.249999901479934e-06,0.9720109861533146,291.89023008912375,0,0.31544780585941834,-1.025000031518169e-05,5.249999901479934e-06,0.9720109861533146,0.7547978760325738
20.1,9.524865812099756,223.80680437628936,11.032132882863765,19.048948951497845,-104.03110639596429,26.45804768,271.4684685449354,-0.35355284645394114,0.14644792306838003,0.8535531600013828,0.3535539472908307,-9.999999406318097e-07,1.0000000116860832e-06,0.32643601775304876,0.09040320675075264,0.09942435148741176,0.09736900207393977,-4.499999306517341e-06,-4.999996860989905e-07,-0.30443698420589094,291.9205864599791,0,0.3382428522467116,-4.499999306517341e-06,-4.999996860989905e-07,-0.30443698420589094,0.6512438279789767
20.3,9.508338723064544,223.94015811381485,11.032111818980963,19.05175746920474,-104.03110649596428,26.45804787,271.5527240761423,-0.32760740255105236,0.19778776301923737,0.7909148011036367,0.47750096124384245,-4.999999703159137e-07,9.500000075490823e-07,0.42127765603453476,0.08979246469187038,0.09929589269950233,0.09758215431139099,2.4999998515794885e-06,-2.5000002068500577e-07,0.4742081914074317,291.99894069848835,0,0.39939701675239625,2.4999998515794885e-06,-2.5000002068500577e-07,0.4742081914074317,0.4360535146287102
20.4,9.499808686020495,224.00390710958922,11.032101215397157,19.053171280379118,-104.03110660596428,26.458047970000003,271.5951384113736,-0.35693676459722695,0.1379954908165234,0.8617224420106055,0.3331483506314401,-1.100000019960158e-06,1.0000000116861188e-06,0.424143352313431,0.08916579741533831,0.0991504166345452,0.09778046689157192,-6.000000496442571e-06,5.000000413703762e-07,0.028656962788962737,292.038385580967,0,0.4187245281732139,-6.000000496442571e-06,5.000000413703762e-07,0.028656962788962737,0.25715770528651843
20.51,9.49026816196475,224.0717720395872,11.032088338567766,19.05488819096452,-104.03110639596429,26.45804812,271.6466457289356,-0.1167881408855902,0.36442713888503614,0.28194792660279283,0.8798060907250758,1.9090908732653647e-06,1.363636347274517e-06,0.4682483414724461,0.08842827781774655,0.09896764542101646,0.0979966705635475,2.735537175659492e-05,3.3057848689853487e-06,0.40095444690012655,292.0862878398617,0,0.4094013566698636,2.735537175659492e-05,3.3057848689853487e-06,0.40095444690012655,0.36996742148012907
20.7,9.47325626610674,224.1834088667562,11.032066796497284,19.057760467028608,-104.03110660596428,26.458048320000003,271.73281401085825,-0.35531222774902693,0.14212610674608184,0.8578004353276153,0.34312068393639356,-1.1052631371536755e-06,1.0526315912485362e-06,0.4535172732771266,0.08776435032769284,0.09879328296773811,0.09817670600162119,-1.5865021107468822e-05,-1.636867136978866e-06,-0.07753193787010354,292.16642803858326,0,0.5341299688260148,-1.5865021107468822e-05,-1.636867136978866e-06,-0.07753193787010354,1.8053268963530005
20.9,9.454316947320287,224.29326263823438,11.032052805489274,19.059625934763535,-104.03110664596429,26.458048419999997,271.788778042906,-0.3168874301390058,0.21454362266538227,0.7650343017927133,0.517953576755723,-2.0000001654807491e-07,4.999999703159137e-07,0.2798201602388427,0.0870881339013214,0.09860931504444373,0.09835063269450006,4.526315603028019e-06,-2.7631581046631223e-06,-0.8684855651914225,292.21847878981765,0,0.5209443075202416,4.526315603028019e-06,-2.7631581046631223e-06,-0.8684855651914225,3.173006845738488
21.0,9.445351434443625,224.3452378494807,11.032026682471352,19.063109003819587,-104.03110660596428,26.45804847,271.89327011458766,-0.16577430962512246,0.3449137394697883,0.4002142678306874,0.8326955808805688,4.0000003309614274e-07,5.000000413701784e-07,1.0449207168164627,0.08630367365723887,0.09838492886442066,0.09853621371171793,6.000000496442091e-06,7.105426468216306e-13,7.651005565776091,292.31566807837464,0,0.4924131737266628,6.000000496442091e-06,7.105426468216306e-13,7.651005565776091,3.1254383294488886
21.1,9.435526575461278,224.39524216856668,11.032017727095209,19.064303053972203,-104.03110674596428,26.45804853,271.92909161916606,-0.374867802461889,0.07694634549621242,0.9050116588084246,0.18576137384557434,-1.3999999737279523e-06,5.999999785899404e-07,0.35821504578393104,0.08559100102999022,0.09817222384762454,0.09869176887643345,-1.8000000068240695e-05,9.999993721976062e-07,-6.867056710325219,292.3489872936639,0,0.4397714495201683,-1.8000000068240695e-05,9.999993721976062e-07,-6.867056710325219,3.3804999820906714
21.3,9.415297781803817,224.4893293283274,11.032001447461584,19.066473671788923,-104.03110692596428,26.458048679999997,271.9942101536677,-0.35982592052182394,0.13027630762174172,0.8686974867918733,0.3145124274723502,-9.000000034120635e-07,7.499999910010073e-07,0.3255926725083225,0.08485437857665162,0.09794043351522556,0.09883504133438523,2.499999851579453e-06,7.50000062055337e-07,-0.16311186637804317,292.4095585053817,0,0.492936217999001,2.499999851579453e-06,7.50000062055337e-07,-0.16311186637804317,3.5621382194450506
21.4,9.404793273462207,224.53340798736608,11.031996689745277,19.067108033963052,-104.03110709596427,26.45804873,272.0132410188916,-0.37877535672307666,0.054551247029514874,0.9144457796760946,0.13169019181173072,-1.6999999274958462e-06,5.000000413701962e-07,0.1903086522389726,0.08399227019610163,0.09765923160021307,0.09898822975710742,-7.999999240837998e-06,-2.4999994963081646e-06,-1.3528402026935282,292.42726082876175,0,0.34025561883547967,-7.999999240837998e-06,-2.4999994963081646e-06,-1.3528402026935282,2.2960633879249035
21.6,9.383990619751549,224.61562566862588,11.031969407545144,19.070745660647273,-104.03110720596428,26.458048830000003,272.1223698194182,-0.35693702869819377,0.13799480769524144,0.8617225514043869,0.3331480676731776,-5.500000099800594e-07,5.000000058430416e-07,0.5456440026330178,0.08311673145192137,0.09736718048705617,0.09913437828375513,5.7499995875788525e-06,-1.7763577287848198e-13,1.776676751970201,292.52877426079937,0,0.6123110097601849,5.7499995875788525e-06,-1.7763577287848198e-13,1.776676751970201,3.796600604679104
21.8,9.361994628878925,224.68991180060564,11.031955331659095,19.072622445453927,-104.03110736596429,26.458048849999997,272.1786733636178,-0.3819438546530753,0.02378027123855689,0.922094197108327,0.05740803298947666,-8.000000661922997e-07,9.999997274690067e-08,0.28151772099789796,0.08232132462029498,0.09709308573074367,0.0992543925727182,-1.2500002810612055e-06,-2.000000165480712e-06,-1.320631408175604,292.5811509354571,0,0.777343514995611,-1.2500002810612055e-06,-2.000000165480712e-06,-1.320631408175604,4.796226961816212
21.9,9.352187010488178,224.72407635352403,11.031912369359086,19.07835075212195,-104.03110764596428,26.458049019999997,272.35052256365856,-0.3685288612907247,0.10311686478280915,0.8897077806690346,0.2489446838358007,-2.799999947456004e-06,1.6999999985501198e-06,1.7184920004075732,0.08139392642322377,0.09676401187119699,0.09938058822007469,-1.999999881263747e-05,1.600000025803253e-05,14.369742794097057,292.7410235287989,0,1.0455701480036068,-1.999999881263747e-05,1.600000025803253e-05,14.369742794097057,4.906345539872559
22.01,9.340586053459642,224.75936147849427,11.03188072359112,19.08257018785047,-104.03110765596429,26.458049010000003,272.4771056355142,0.3535534565868033,0.1464464500841507,-0.8535535219852106,0.3535530733849113,-9.090916302573451e-08,-9.090903383614619e-08,1.1507551986875546,0.0805636040004171,0.09646123140959847,0.09948180097253409,2.462809804027451e-05,-1.6280991203511068e-05,-5.161243652000029,292.85879329985903,0,1.2967389048089109,2.462809804027451e-05,-1.6280991203511068e-05,-5.161243652000029,5.0911021282240885
22.21,9.319754983555885,224.81734819391818,11.031804151500257,19.09277979996572,-104.03110783596429,26.45804897,272.7833939989716,0.38039843523553357,0.04175691412344574,-0.918363002206629,0.10081064810461117,-9.000000034120635e-07,-2.0000001654807491e-07,1.5314418172869237,0.07972298898574802,0.0961444300193261,0.09956951768212377,-4.045454201931659e-06,-5.454549135596456e-07,1.9034330929968524,293.14378689386393,0,1.6843558040916413,-4.045454201931659e-06,-5.454549135596456e-07,1.9034330929968524,5.2670963000157744
22.31,9.309370107053073,224.84335436165958,11.03175911430559,19.09878475925458,-104.03110801596429,26.45804895,272.9635427776375,0.38209786139481705,0.02116208223026617,-0.9224657880847476,0.05109070763232985,-1.800000006824159e-06,-2.0000001654807846e-07,1.8014877866591334,0.07874327018781717,0.09576637842229042,0.09965913954269447,-9.000000034121147e-06,-3.5469504666274585e-20,2.7004596937221548,293.3114308631509,0,1.8434147992272543,-9.000000034121147e-06,-3.5469504666274585e-20,2.7004596937221548,2.6873324998692416
22.5,9.2899990657653,224.88727439718247,11.031653683200263,19.112842239964863,-104.0311080959643,26.458048849999997,273.3852671989459,0.3449138569043635,0.1657740652879114,-0.8326956352693823,0.40021415466796695,-4.210526664169955e-07,-5.263157956242583e-07,2.219602217412602,0.07774970220054438,0.09537662460085324,0.09974096543057938,7.257617581090285e-06,-1.7174514688219874e-06,2.200602267123505,293.7039395753183,0,2.1119917671872175,7.257617581090285e-06,-1.7174514688219874e-06,2.200602267123505,1.6917145651166936
22.7,9.269590151000143,224.92572553980804,11.031527993851459,19.129600819805454,-104.03110800596428,26.458048679999997,273.8880245941636,0.1973904437068501,0.3278469492612854,-0.47654282796723313,0.7914924659820035,4.500000727603053e-07,-8.499999992750448e-07,2.5137869760885767,0.0768771032927661,0.0950271840209806,0.09980267290221767,4.35526369588652e-06,-1.6184210182539386e-06,1.4709237933798778,294.1719731534515,0,2.4437812975091617,4.35526369588652e-06,-1.6184210182539386e-06,1.4709237933798778,2.8593600140932365
22.81,9.258081448361192,224.94346972623535,11.0314594187504,19.13874416661324,-104.03110803596428,26.45804861,274.1623249983972,0.3194798773074587,0.2106637543630434,-0.7712925970772214,0.5085873772393033,-2.727272306980357e-07,-6.363636244218089e-07,2.4936400384872828,0.07585986206118853,0.09461147160528979,0.09986280979803411,-6.570248213257681e-06,1.9421488623021553e-06,-0.18315397819358217,294.42737682485705,0,2.678075883146848,-6.570248213257681e-06,1.9421488623021553e-06,-0.18315397819358217,2.536696829397846
22.9,9.249155753294321,224.9561900051043,11.03138763498735,19.14831533501993,-104.0311080559643,26.45804853,274.4494600505979,0.301633204377955,0.23550800288611565,-0.7282069332685689,0.5685666653373783,-2.2222239850735741e-07,-8.888888834866939e-07,3.190389468896789,0.0748060858727665,0.09417000125713768,0.09990986058204439,5.611648021186487e-07,-2.80583621183206e-06,7.741660337883416,294.69476733975495,0,2.537914320060337,5.611648021186487e-07,-2.80583621183206e-06,7.741660337883416,3.550742688839398
23.1,9.228451078054617,224.97866237724656,11.031238986951609,19.16813507311892,-104.03110785596428,26.45804836,275.04405219356755,0.13202859314267423,0.3591866645624462,-0.31874551186613176,0.8671532097954021,1.0000000827403568e-06,-8.499999992750297e-07,2.972960714848185,0.07386828268356396,0.09376996998165263,0.09994170585784012,6.111112406238484e-06,1.944444210583182e-07,-1.0871437702430042,295.2485908041176,0,3.244716061521892,6.111112406238484e-06,1.944444210583182e-07,-1.0871437702430042,12.314560492995739
23.3,9.204246885673273,224.99313866120556,11.031163047231509,19.178260369132115,-104.03110759596427,26.458048230000003,275.34781107396344,0.08792224734306278,0.37244635563919826,-0.2122638516030204,0.8991648613551778,1.3000000365082134e-06,-6.499999827269699e-07,1.518794401979454,0.07279191601519527,0.09330258897655035,0.09996676605997051,1.4999997688392881e-06,1.0000000827403026e-06,-7.270831564343682,295.53158329865045,0,3.302705264489963,1.4999997688392881e-06,1.0000000827403026e-06,-7.270831564343682,15.54213932740094
23.4,9.196455492561283,224.9973774103485,11.031011852339423,19.19841968807677,-104.03110742596428,26.45804813,275.95259064230305,0.10054655001498537,0.3692384062997982,-0.24274109526903032,0.8914203000049196,1.6999999274958462e-06,-1.0000000116861188e-06,6.047795683396218,0.0716908592525106,0.09281944281090918,0.09998539009878785,3.999998909876413e-06,-3.5000002895915636e-06,45.290012814168605,296.09513995558996,0,3.1136863931939662,3.999998909876413e-06,-3.5000002895915636e-06,45.290012814168605,15.070389141655227
23.6,9.173914610070035,224.99985518102872,11.030872673036757,19.21697692843228,-104.03110698596427,26.45804792,276.5093078529684,0.08450207374820093,0.3732372019761997,-0.20400676465321468,0.9010741537570365,2.2000000399202377e-06,-1.0500000158231011e-06,2.7835860533266614,0.07071225336245993,0.09238311502968277,0.0999923548626658,2.5000005621219223e-06,-2.5000002068490815e-07,-16.32104815034755,296.61405369569025,0,3.081468598105771,2.5000005621219223e-06,-2.5000002068490815e-07,-16.32104815034755,15.986113641596992
23.7,9.161893850161974,224.9980940924433,11.030816540658947,19.224461245473666,-104.03110692596428,26.45804767,276.73383736420993,0.23692809544057347,0.3005190293434436,-0.5719952151966844,0.7255169635408091,5.999999075356883e-07,-2.49999999368816e-06,2.2452951124154676,0.06971382922414655,0.09192881828215464,0.09998687640740453,-1.6000001323845838e-05,-1.4499999778650899e-05,-5.382909409112052,296.8233754896511,0,3.3131837203479755,-1.6000001323845838e-05,-1.4499999778650899e-05,-5.382909409112052,14.666449054955388
23.8,9.15030021249538,224.99433309597197,11.030746243865462,19.233834151271687,-104.03110672596429,26.458047630000003,277.0150245381506,0.037708385594771354,0.3808210696148589,-0.09103674984783441,0.9193833263499908,1.9999998812636193e-06,-3.9999996204186916e-07,2.811871739406757,0.06870564523109383,0.09146558406235714,0.09997517656954483,1.3999999737279113e-05,2.100000031646261e-05,5.665766269912814,297.08554874125485,0,2.6435547860939357,1.3999999737279113e-05,2.100000031646261e-05,5.665766269912814,5.653008490142194
24.0,9.12643134651019,224.98081213686774,11.030612375364802,19.25168328469296,-104.03110664596429,26.45804741,277.5504985407888,0.2195443509104052,0.3134435952289377,-0.530027062564524,0.7567196994545001,4.0000003309614983e-07,-1.1000000199601383e-06,2.677370013190919,0.06767824494713562,0.09098457202301183,0.09995103580294254,-7.999999240837376e-06,-3.5000002895913586e-06,-0.6725086310791941,297.5849100054877,0,2.7637391489742655,-7.999999240837376e-06,-3.5000002895913586e-06,-0.6725086310791941,3.073655715677736
24.1,9.114315823252996,224.9710527751641,11.0305448840895,19.260682121400045,-104.0311064459643,26.458047389999997,277.82046364200136,0.019062539306212645,0.3822083581006221,-0.04602172452025546,0.9227325676843792,1.9999998812636193e-06,-2.0000001654807137e-07,2.6996510121255897,0.06664139014862429,0.09049472087095167,0.09992067604312427,1.5999998481674468e-05,9.000000034120542e-06,0.2228099893467052,297.83671600109955,0,2.8616307735309254,1.5999998481674468e-05,9.000000034120542e-06,0.2228099893467052,3.2965830989078397
24.3,9.091055155299996,224.94553845617358,11.030375658696112,19.28324550718489,-104.0311055859643,26.45804723,278.49736521554667,0.03514587361853312,0.3810661057801574,-0.08485081357469818,0.9199748529328657,4.300000000512243e-06,-7.999999951380261e-07,3.3845078677265525,0.0654405030774034,0.08991983628457102,0.09987532229352021,1.1500000596243158e-05,-2.9999998929497845e-06,3.4242842780048264,298.46822548583714,0,2.9593299806716886,1.1500000596243158e-05,-2.9999998929497845e-06,3.4242842780048264,2.7290443848277546
24.4,9.078578402059406,224.9297846328522,11.030307289865233,19.29236135130222,-104.0311053359643,26.45804724,278.77084053906657,-0.007649504039236465,0.38260697130966353,0.018466691992657228,0.9236949560758944,2.49999999368816e-06,1.0000000827403923e-07,2.734753235199095,0.06436024771990811,0.08939586068545405,0.09982529968936583,-1.800000006824121e-05,9.000000034120845e-06,-6.497546325274715,298.72341835891314,0,3.0454161088304623,-1.800000006824121e-05,9.000000034120845e-06,-6.497546325274715,2.9446646970136108
24.6,9.054370400932667,224.8922871593628,11.030142271476478,19.31436380313627,-104.03110442596429,26.45804749,279.43091409408817,-0.05114789269166827,0.37924992087023973,0.12348067395868402,0.9155904727288438,4.550000056724393e-06,1.2499999968440356e-06,3.300367775107939,0.06312820631914459,0.08879108991965051,0.09975864492095696,1.0250000315181017e-05,5.7499999428499e-06,2.828072699544182,299.33949742145063,0,3.094550409728891,1.0250000315181017e-05,5.7499999428499e-06,2.828072699544182,3.0711323172820872
24.71,9.040628547013036,224.8682612775204,11.030056806958493,19.32575907220087,-104.03110391596428,26.458047569999998,279.77277216602613,-0.029742445025881085,0.38152587903155477,0.0718032400414794,0.921085058674077,4.636363697004137e-06,7.272727228527522e-07,3.107800653981501,0.06187600964997756,0.0881666038697817,0.09967780375948984,7.851240025431354e-07,-4.75206612719351e-06,-1.7506101920585377,299.6586439745293,0,2.7486746137523417,7.851240025431354e-07,-4.75206612719351e-06,-1.7506101920585377,3.676469090449782
24.9,9.016230881198464,224.82107954624416,11.029916904138954,19.344412781472776,-104.03110334596428,26.45804784,280.3323834441833,-0.08395660031012088,0.3733602799859192,0.20268824501460322,0.9013716580446176,2.9999999864422463e-06,1.4210526369664281e-06,2.94532251661661,0.06061392267377178,0.08753232488659776,0.09958987463329483,-8.612440581904791e-06,3.6514732321772857e-06,-0.8551480913941741,300.1811852304855,0,3.4136961148396763,-8.612440581904791e-06,3.6514732321772857e-06,-0.8551480913941741,11.186423530970005
25.1,8.987495928445346,224.76364584287256,11.029834147694562,19.355446974058403,-104.03110279596427,26.458047899999997,280.66340922175215,-0.02078196156441836,0.38211872432596433,0.05017056069884354,0.9225162900633227,2.7500000499002973e-06,2.999999892949702e-07,1.655128887844318,0.059332434682827985,0.08687859285447583,0.09948778161632987,-1.249999682709727e-06,-5.605263238357209e-06,-6.450968143861368,300.490345807648,0,3.314507231346988,-1.249999682709727e-06,-5.605263238357209e-06,-6.450968143861368,13.876246374046957
25.2,8.977355252006312,224.7319440989134,11.029682651176046,19.375646509860495,-104.0311017859643,26.458048329999997,281.26939529581483,-0.0764968730762871,0.37495978159861043,0.18467827970321343,0.9052332978845478,1.0099999769863859e-05,4.300000000512319e-06,6.059860740626974,0.05805710077712859,0.08622301571344822,0.09937962836870351,7.349999719963718e-05,4.000000011217434e-05,44.04731852782751,301.05642525996285,0,3.3780170482678584,7.349999719963718e-05,4.000000011217434e-05,44.04731852782751,14.7679770975287
25.4,8.950215260570845,224.66257787119167,11.029542430008163,19.394342665578133,-104.0311012859643,26.458048799999993,281.830279967344,-0.1409641326193932,0.3557748202467349,0.3403167550977136,0.8589166995658125,2.4999999936881157e-06,2.3499999812770596e-06,2.8044233576457698,0.056747474717102064,0.08554044626031329,0.09925632433208627,-3.799999888087885e-05,-9.75000009617633e-06,-16.277186914906082,301.5805117834129,0,3.077282329884379,-3.799999888087885e-05,-9.75000009617633e-06,-16.277186914906082,16.580648293129343
25.5,8.937095584194857,224.6249164703611,11.029456796264698,19.405760498040078,-104.03110068596428,26.45804904,282.1728149412023,-0.07236910906913573,0.37577828763712995,0.17471289550204294,0.907209344494609,6.000000212225046e-06,2.400000056468309e-06,3.425349738583301,0.05558955450593624,0.08493069414720347,0.09913916594423694,3.5000002185368806e-05,5.000007519124864e-07,6.209263809375224,301.90063888766167,0,3.966024169642722,3.5000002185368806e-05,5.000007519124864e-07,6.209263809375224,24.604832988231287
25.7,8.9065558880154,224.54364546385537,11.029384713818464,19.41537149087141,-104.03110047596428,26.45804932,282.4611447261423,-0.17114153673707802,0.34228231594688197,0.41317161722367607,0.8263429102461534,1.049999980295983e-06,1.400000009255114e-06,1.4416489247000237,0.054235826024659504,0.08421035428830723,0.09899253819165463,-2.47500011596454e-05,-5.000000236065993e-06,-9.918504069416421,302.17014498467984,0,3.326025306197465,-2.47500011596454e-05,-5.000000236065993e-06,-9.918504069416421,18.880104200009693
25.8,8.895780100459296,224.50003947021156,11.029232242866298,19.43570095116018,-104.03109978596427,26.45804999,283.0710285348054,-0.14384368780437268,0.3546203644541172,0.34726841336579606,0.8561296862459975,6.900000073528547e-06,6.699999985926202e-06,6.098838086630762,0.053054838460646514,0.08357593409329218,0.09885688715894717,5.850000093232481e-05,5.2999999766710125e-05,46.57189161930672,302.74032656338204,0,3.3978317670762443,5.850000093232481e-05,5.2999999766710125e-05,46.57189161930672,16.29930956954228
26.01,8.8660044557577,224.40203165560322,11.02908209987907,19.45572001612403,-104.03109919596429,26.458050720000003,283.6716004837209,-0.16491320426979325,0.34532628695792966,0.3981348753466172,0.8336917965447739,2.809523737466525e-06,3.476190493128805e-06,2.859866423407137,0.05186639696105494,0.08293337855936106,0.09871508360407685,-1.94784587431524e-05,-1.535147377522564e-05,-15.423674586779104,303.30195345368026,0,3.3464040084628452,-1.94784587431524e-05,-1.535147377522564e-05,-15.423674586779104,15.066967375040676
26.1,8.853376819429151,224.3573630475999,11.029010922126673,19.465210383110147,-104.0310990659643,26.4580511,283.9563114933044,-0.2225351680462323,0.31132733318682826,0.5372470776145124,0.7516109154263785,1.4444443271107373e-06,4.222222176824498e-06,3.1634556620386167,0.050663404853288144,0.08227468677441144,0.09856099418511574,-1.516754900395322e-05,8.289240929952155e-06,3.3732137625720005,303.5682540677882,0,3.629388831226097,-1.516754900395322e-05,8.289240929952155e-06,3.3732137625720005,13.394904468165802
26.2,8.839254610702238,224.30585847190287,11.028931716853036,19.475771086261872,-104.03109882596428,26.45805163,284.2731325878561,-0.20740843379011026,0.32160278450172514,0.5007276656507049,0.776418183355765,2.4000001985769416e-06,5.3000000121984375e-06,3.168210945517057,0.04945331752797337,0.08160799519792587,0.09840077197026305,9.555558714662247e-06,1.077777835373963e-05,0.04755283478440221,303.8646276391941,0,3.0406995197321134,9.555558714662247e-06,1.077777835373963e-05,0.04755283478440221,4.678163125619889
26.4,8.810089701932887,224.19694427119282,11.02878888820111,19.49481490651863,-104.03109885596427,26.45805251,284.84444719555887,-0.27516921115236487,0.26594833077179114,0.6643172752267631,0.6420560321566743,-1.499999768839194e-07,4.40000000878628e-06,2.8565730385139534,0.04824654641537459,0.08093480305240386,0.09823046781504474,-1.275000087730435e-05,-4.500000017060805e-06,-1.5581895350155228,304.39917406252084,0,3.0623719691205102,-1.275000087730435e-05,-4.500000017060805e-06,-1.5581895350155228,1.780591067100623
26.5,8.795660946064517,224.13953948679304,11.02871000341288,19.505332878282506,-104.03109857596428,26.45805299,285.15998634847523,-0.19059994469408917,0.3318407306061169,0.4601482605654312,0.8011348006996182,2.7999999474559047e-06,4.799999970828071e-06,3.1553915291635355,0.04683639101361605,0.08014132591118636,0.09802289742456045,2.949999924339782e-05,3.999999620417853e-06,2.9881849064957784,304.69446311544,0,2.720779191749458,2.949999924339782e-05,3.999999620417853e-06,2.9881849064957784,2.618685209744387
26.7,8.766147660486064,224.018847306362,11.028561591979363,19.525121069418173,-104.0310986359643,26.458053829999997,285.75363208254515,-0.28007183542916675,0.26078032212168134,0.6761532871641412,0.6295793221275426,-3.0000009587638593e-07,4.1999999922382056e-06,2.968228670349628,0.04541875577005588,0.07933894958650688,0.0978083573879453,-1.5500000216661508e-05,-2.9999998929493364e-06,-0.9358142940695402,305.25012095696786,0,3.2583496420234126,-1.5500000216661508e-05,-2.9999998929493364e-06,-0.9358142940695402,11.410317485762434
26.9,8.733245468696072,223.89032966901024,11.028488817390604,19.5348243479194,-104.03109889596428,26.458054259999997,286.044730437582,-0.3333321485332886,0.18797948867040135,0.8047353991043321,0.45382191223186596,-1.2999998943996662e-06,2.1500000002561213e-06,1.4554917751843328,0.04416866228379608,0.07862525073035478,0.09761149745496148,-4.999998992616419e-06,-1.0249999959910458e-05,-7.563684475826504,305.52264397886444,0,3.268575698102205,-4.999998992616419e-06,-1.0249999959910458e-05,-7.563684475826504,16.99539933471153
27.0,8.721063128040363,223.82314338951878,11.028342415810682,19.55434455857568,-104.03109939596428,26.458055109999997,286.6303367572704,-0.33218799463457044,0.18999406734755453,0.8019731535380253,0.45868556942383787,-4.999999987376142e-06,8.499999992750297e-06,5.856063196883868,0.042729441009846825,0.07779651362941445,0.09737610692732926,-3.700000092976424e-05,6.349999992494086e-05,44.005714216994726,306.0709856737862,0,3.221055487775498,-3.700000092976424e-05,6.349999992494086e-05,44.005714216994726,16.40784951201308
27.1,8.705846952242927,223.75400942197925,11.028269723227709,19.564036902972035,-104.03109982596428,26.45805551,286.92110708916096,-0.3561407853469899,0.14003696090383264,0.8598004140595668,0.33807785874890606,-4.3000000005121664e-06,4.000000046744333e-06,2.907703318905378,0.04146102319120974,0.0770599729141699,0.09716104259079542,6.9999998686396605e-06,-4.4999999460059006e-05,-29.483598779784483,306.3433043590797,0,3.208912782491228,6.9999998686396605e-06,-4.4999999460059006e-05,-29.483598779784483,16.241237320758607
27.3,8.675185607031509,223.60991079962054,11.028123833703832,19.583488839488897,-104.03110061596428,26.458056300000003,287.50466518466686,-0.35355315127885745,0.1464471871615006,0.8535532914661589,0.3535536299072042,-3.950000007080249e-06,3.950000007080249e-06,2.9177904775295462,0.04018102233650833,0.07630845915339127,0.0969338893276176,1.7499999671595945e-06,-2.5000019832042184e-07,0.0504357931208423,306.8899332684118,0,3.4937855198583447,1.7499999671595945e-06,-2.5000019832042184e-07,0.0504357931208423,14.756160107504021
27.4,8.659723724787497,223.5349525491609,11.028051145825234,19.593180556635307,-104.03110119596428,26.45805663,287.7954166990592,-0.369954292609139,0.09787967504561745,0.893149142055827,0.23630065729484598,-5.800000053568634e-06,3.2999999888262003e-06,2.907515143923609,0.03870871163785459,0.07543694637855007,0.09666396131220453,-1.8500000464884247e-05,-6.5000001825406235e-06,-0.1027533360593735,307.16233598809987,0,2.9015445138669524,-1.8500000464884247e-05,-6.5000001825406235e-06,-0.1027533360593735,5.9700199691414175
27.6,8.628511956764731,223.37923482686017,11.027907153052134,19.612379593048736,-104.03110242596429,26.458057259999997,288.371387791462,-0.3720148509318739,0.08973048586271672,0.8981237611362688,0.21662663796361487,-6.150000047000416e-06,3.1499999764150295e-06,2.8798554620137953,0.037230222169509206,0.07455705767715796,0.09638716056401428,-1.749999967158886e-06,-7.500000620558435e-07,-0.13829840954906716,307.70205778107606,0,2.890518732450258,-1.749999967158886e-06,-7.500000620558435e-07,-0.13829840954906716,0.1578677234458506
27.8,8.597032284850757,223.2158053548394,11.027762410143788,19.631678647494905,-104.03110387596428,26.45805755,288.95035942484714,-0.38082092303987264,0.037709865848578994,0.919383265236893,0.09103736702635161,-7.249999924852116e-06,1.4500000133921327e-06,2.894858166925768,0.035928595620778915,0.0737762281733804,0.09613595273609249,-5.49999938925852e-06,-8.499999815114514e-06,0.07501352455986403,308.24472354724765,0,2.886593676201726,-5.49999938925852e-06,-8.499999815114514e-06,0.07501352455986403,0.23896213376304498
27.9,8.581143103177066,223.13120773855115,11.027691095783492,19.641187228867622,-104.0311047259643,26.45805763,289.23561686602864,-0.3822621980322594,0.017950525425451894,0.9228627119973377,0.04333365202028137,-8.50000020591342e-06,7.999999951380403e-07,2.8525744118150596,0.03443245932715094,0.07287158061588263,0.09583860882189733,-1.2500002810613301e-05,-6.500000182541062e-06,-0.42283755110709376,308.51214178364046,0,2.8749140199736183,-1.2500002810613301e-05,-6.500000182541062e-06,-0.42283755110709376,0.26745979969889466
28.0,8.565230634168378,223.0446931867965,11.027618641653586,19.650847779521893,-104.03110550596429,26.458057670000002,289.5254333856568,-0.38255782753043827,0.009803978914513532,0.9235763593117468,0.023666413186088732,-7.799999934832048e-06,4.0000003309614274e-07,2.898165196281711,0.03292530556478648,0.071950740310973,0.09552763503262178,7.000002710813619e-06,-3.9999996204189185e-06,0.45590784466650786,308.7838666537073,0,2.5802366313574687,7.000002710813619e-06,-3.9999996204189185e-06,0.45590784466650786,1.682448461636202
28.2,8.53310849601623,222.8659287422218,11.027476185810446,19.669841891940408,-104.03110725596429,26.45805757,290.09525675821226,0.3825276252755814,0.010919034233007732,-0.9235032999576426,0.02636371672938164,-8.749999977908404e-06,-5.000000058430505e-07,2.849116862777247,0.03159957890561452,0.0711344897871212,0.09524661218421923,-4.750000215381798e-06,-4.500000194695982e-06,-0.245241667522321,309.3182149193488,0,3.1056778322548713,-4.750000215381798e-06,-4.500000194695982e-06,-0.245241667522321,9.898637061549625
28.4,8.497848207233654,222.67954380099016,11.0274058623845,19.679218348733297,-104.0311082059643,26.458057410000002,290.3765504619989,0.38135256551050223,0.03188777487163196,-0.9206662756982659,0.0769870078921045,-4.750000073272548e-06,-7.999999951380261e-07,1.4064685189330868,0.030077030579039078,0.07018984134051154,0.0949152979932456,1.999999952317935e-05,-1.4999999464748831e-06,-7.213241719220827,309.5820429784029,0,3.0438788663135226,1.999999952317935e-05,-1.4999999464748831e-06,-7.213241719220827,12.792554140583757
28.5,8.484243593476464,222.58350394593364,11.027267810780215,19.697625229304585,-104.03111010596427,26.45805685,290.92875687913755,0.37876061681186907,0.054653495404907264,-0.9144085640016423,0.13194835608211633,-1.8999999724655665e-05,-5.6000000370203565e-06,5.522064171386695,0.02854965456914319,0.06923738731676807,0.09457723271726477,-0.00014249999651382914,-4.8000000418822625e-05,41.1559565245355,310.10005195323237,0,2.9324470379278287,-0.00014249999651382914,-4.8000000418822625e-05,41.1559565245355,13.10651962716538
28.7,8.450906829814814,222.3857508088605,11.02714063180111,19.714582426518593,-104.03111189596427,26.458055950000002,291.4374727955578,0.37234827938243537,0.08833667555711967,-0.8989275156000645,0.21326676320878482,-8.94999999445648e-06,-4.499999981533181e-06,2.5435795821013674,0.02720703101826517,0.06839381727288199,0.09427258107131362,5.0249998650996106e-05,5.5000002774358975e-06,-14.892422946426693,310.5773680042148,0,2.804852241321296,5.0249998650996106e-05,5.5000002774358975e-06,-14.892422946426693,13.317197642866901
28.8,8.43395443333214,222.28404631583962,11.027082106649752,19.72238578003306,-104.03111279596428,26.45805539,291.6715734009918,0.3679597723998923,0.10512951680164039,-0.8883324971721553,0.25380852046445546,-9.000000034120476e-06,-5.6000000370203565e-06,2.341006054339767,0.025856762932553807,0.06753693706722645,0.09395619521798423,-5.000003966399539e-07,-1.10000005548716e-05,-2.0257352776159743,310.7970525194811,0,2.929759305362734,-5.000003966399539e-07,-1.10000005548716e-05,-2.0257352776159743,12.054688339647807
28.9,8.416820450235956,222.1804625388317,11.027026828077759,19.729756256298835,-104.03111363596429,26.45805474,291.89268768896505,0.3621241256771768,0.12374460396226719,-0.8742438405463528,0.2987492223580261,-8.400000126585107e-06,-6.499999969378362e-06,2.211142879732553,0.024307548670720904,0.06654645797115397,0.093584605870274,5.999999075353816e-06,-8.999999323580244e-06,-1.2986317460721664,311.0045697272814,0,2.0183963198445434,5.999999075353816e-06,-8.999999323580244e-06,-1.2986317460721664,4.889251630005299
29.1,8.382044778610418,221.96767563099903,11.026925277885802,19.743296281892967,-104.03111499596429,26.458053049999997,292.298888456789,0.34515282127981295,0.1652759491540514,-0.8332712862927706,0.39901422785886304,-6.799999994200238e-06,-8.450000024140416e-06,2.031003839119563,0.022946827346563954,0.0656700599416061,0.0932507248154327,8.000000661924235e-06,-9.75000027381013e-06,-0.900695203064939,311.38584048022244,0,2.2312128725506355,8.000000661924235e-06,-9.75000027381013e-06,-0.900695203064939,7.19559324434361
29.3,8.344953981557317,221.74742791358565,11.026877015423612,19.749731276851726,-104.03111546596429,26.458052000000002,292.4919383055518,0.321153493709617,0.2081034427460112,-0.7753318969612342,0.5024080414860601,-2.3500000168041964e-06,-5.249999972534188e-06,0.9652492438141315,0.021386365711226398,0.06465758698043486,0.09285921682220966,2.2249999886980284e-05,1.6000000258031195e-05,-5.328772976527175,311.5670641683203,0,2.127853390655494,2.2249999886980284e-05,1.6000000258031195e-05,-5.328772976527175,8.57389988958705
29.4,8.32898701484464,221.63451843546756,11.026786823864972,19.761756818003665,-104.03111632596429,26.45804993,292.85270454011,0.31830316199326286,0.21243753545315208,-0.7684505880493417,0.5128714110986323,-8.600000001024638e-06,-2.0700000007423554e-05,3.6076623455819203,0.019822466556786253,0.06363792267734103,0.09246110368836509,-6.249999984220575e-05,-0.00015450000034889695,26.42413101767845,311.90576802390433,0,2.0972378862021825,-6.249999984220575e-05,-0.00015450000034889695,26.42413101767845,8.781886965590347
29.6,8.293367998479258,221.40315333108774,11.02669561343273,19.773918208969306,-104.0311164759643,26.458047460000003,293.2175462690792,0.2786789544108752,0.2622682782403381,-0.6727902509770833,0.6331719109274377,-7.500000265281308e-07,-1.2349999991556439e-05,1.8242086448460977,0.018252161858087854,0.06260408861371435,0.09204983364760644,3.9249999872481973e-05,4.175000007933498e-05,-8.917268503678986,312.2483481312445,0,1.8562320770014114,3.9249999872481973e-05,4.175000007933498e-05,-8.917268503678986,9.83383848930779
29.7,8.275737185950529,221.28470798768143,11.026644161798794,19.78077842682746,-104.0311163359643,26.458046109999998,293.4233528048239,0.2562619032973563,0.28421197427515316,-0.6186714292219767,0.6861479820428481,1.399999973728002e-06,-1.3500000051181193e-05,2.058065357446752,0.016874216034267215,0.061690309952800525,0.09168136977808201,2.1500000002561788e-05,-1.1500000596247786e-05,2.338567126006591,312.44161909273544,0,2.380946630932182,2.1500000002561788e-05,-1.1500000596247786e-05,2.338567126006591,14.29377833467089
29.9,8.237910901807167,221.04231803929207,11.026602863059138,19.786284925448264,-104.03111607596429,26.45804486,293.5885477634479,0.24147821936311312,0.29687519090537784,-0.5829811202590197,0.7167191946778416,1.3000000365082134e-06,-6.249999984220289e-06,0.8259747931199997,0.0152954814404444,0.06063576089935543,0.09125050219232053,-4.999996860989454e-07,3.6250000334804647e-05,-6.160452821633783,312.59676362316173,0,2.050259629415444,-4.999996860989454e-07,3.6250000334804647e-05,-6.160452821633783,10.643546806452184
30.0,8.221714315767581,220.91838420715567,11.026513142508804,19.798247665492823,-104.0311150459643,26.458042159999998,293.94742996478476,0.2170807885465759,0.3151547883920665,-0.5240815675059798,0.7608494602732025,1.0299999928520119e-05,-2.7000000031307153e-05,3.5888220133687754,0.013910779856292733,0.05970414279264581,0.09086496454228965,8.999999892011777e-05,-0.00020750000047086567,27.628472202487362,312.9338468039995,0,2.0172494227055457,8.999999892011777e-05,-0.00020750000047086567,27.628472202487362,9.4502325592475
30.2,8.18596926438512,220.6650663675043,11.026415431141903,19.811275847746206,-104.03111342596429,26.45803953,294.3382754323861,0.18660141049377255,0.3341055566822814,-0.4504989992262145,0.8066002989659355,8.100000030708572e-06,-1.3149999986694686e-05,1.9542273380068378,0.012524103003601855,0.058766707048513764,0.09047376956546307,-1.0999999489057776e-05,6.925000022306258e-05,-8.172973376809717,313.3010067027045,0,1.9312691224360035,-1.0999999489057776e-05,6.925000022306258e-05,-8.172973376809717,9.044506644504981
30.3,8.167764289308415,220.53569361851822,11.026373952201622,19.816806373117053,-104.0311122159643,26.458038379999998,294.5041911935116,0.1419384206777735,0.3553872453292047,-0.34267591734335223,0.8579782085028215,1.2099999935344213e-05,-1.1500000027808547e-05,1.65915761125459,0.011133891797080351,0.05781783172699956,0.0900713123448453,3.9999999046355844e-05,1.649999958886115e-05,-2.9506972675224357,313.4568849688144,0,2.0386036085542,3.9999999046355844e-05,1.649999958886115e-05,-2.9506972675224357,8.077932712583603
30.4,8.14950604842437,220.40451928982168,11.026333248105221,19.822233585970558,-104.03111086596428,26.4580373,294.6670075791168,0.12666725669165324,0.36111219238780173,-0.30580903758889527,0.8717994167926701,1.350000019328974e-05,-1.079999996989068e-05,1.6281638560520042,0.009742121858699881,0.05686333525993609,0.08966325070777434,1.4000002579455572e-05,7.000000579178816e-06,-0.3099375520258651,313.6098613267861,0,1.439293690240335,1.4000002579455572e-05,7.000000579178816e-06,-0.3099375520258651,4.092987875967934
30.6,8.112399673758967,220.13678929290208,11.026265115744039,19.831317900794758,-104.0311084159643,26.45803495,294.9395370238428,0.1427525656964421,0.3550610009482602,-0.3446428861940676,0.8571899857024262,1.224999991222813e-05,-1.1750000012966498e-05,1.3626472236299298,0.008327678225804472,0.05588372976730367,0.08923776532989602,-6.250001405307962e-06,-4.75000021537902e-06,-1.3275831621103529,313.8659421337528,0,1.160176014632682,-6.250001405307962e-06,-4.75000021537902e-06,-1.3275831621103529,2.4904250693464283
30.7,8.093050664941721,220.00024552374597,11.026250308933498,19.833292142200115,-104.03110681596428,26.458033899999997,294.99876426600343,0.10955589254294487,0.3666662185865639,-0.26451523508527597,0.8852034121965019,1.60000001869779e-05,-1.0500000016122836e-05,0.5922724216066071,0.006712212088385745,0.054756826800437294,0.08874274426395781,3.750000274749851e-05,1.2499999968436887e-05,-7.703748020233392,313.92159795349727,0,0.838670559116748,3.750000274749851e-05,1.2499999968436887e-05,-7.703748020233392,2.407294242651907
30.91,8.052302931247452,219.70772426727808,11.026220980388107,19.83720261491911,-104.03110416596428,26.45803267,295.1160784475733,0.08248642959655285,0.3736878354650091,-0.19916023583030668,0.9021577417624402,1.261904761425583e-05,-5.857142834234481e-06,0.5586389598563722,0.005095676326244188,0.05362377221472133,0.08824133608382465,-1.6099774155819324e-05,2.2108843723277793e-05,-0.16015934166778434,314.031842151446,0,0.5590785901702632,-1.6099774155819324e-05,2.2108843723277793e-05,-0.16015934166778434,2.7024540875638174
31.11,8.01243980877318,219.42189622015724,11.026218398871455,19.83754681713918,-104.03110249596429,26.45803212,295.12640451417536,0.06054583783293729,0.3778634845932061,-0.14631811373517842,0.9122194901037617,8.349999944812256e-06,-2.7500000143732093e-06,0.051630333010450793,0.003697481169761971,0.05263695417904528,0.08780003746506079,-2.1345238347217942e-05,1.5535714099306413e-05,-2.5350431342296162,314.0415456458802,0,0.33505867463386063,-2.1345238347217942e-05,1.5535714099306413e-05,-2.5350431342296162,2.4643677758522964
31.21,7.99267664556973,219.27635088452203,11.026212643771233,19.838314163835605,-104.03109914596428,26.458031660000003,295.14942491506815,0.02602317940306615,0.38179759739551383,-0.06295964611697463,0.9217317786197862,3.350000014279383e-05,-4.59999995428e-06,0.23020400892789566,0.002098705999602125,0.05150041373623141,0.0872863378985956,0.0002515000019798122,-1.8499999399067643e-05,1.7857367591744235,314.0631784474813,0,0.27545072213606253,0.0002515000019798122,-1.8499999399067643e-05,1.7857367591744235,0.9753031852625241
31.3,7.974897329903641,219.1438674006834,11.026207186449216,19.839041806771082,-104.0310972759643,26.4580318,295.17125420313243,-0.014334591721063026,0.3824148657308109,0.03452767718450422,0.923234114110023,2.077777752320903e-05,1.555555526364416e-06,0.24254764515869018,0.000719158393223862,0.05051242102730481,0.08683495181692867,-0.00014135802910649804,6.839506089604917e-05,0.1371515136754948,314.0836925964498,0,0.226006201244431,-0.00014135802910649804,6.839506089604917e-05,0.1371515136754948,0.9776387094232526
31.5,7.93548651261428,218.8444214991993,11.026192474816286,19.84100335782859,-104.03109295596428,26.45803222,295.23010073485773,-0.018570999893564512,0.38223255727569966,0.04476661632199958,0.9227943108756745,2.1600000081889526e-05,2.0999999961191028e-06,0.2942326586264709,-0.000660557333195111,0.049514762276826677,0.08637291868347187,4.111112793402496e-06,2.7222223487734433e-06,0.2584250673389046,314.13899495363717,0,0.39186193742377134,4.111112793402496e-06,2.7222223487734433e-06,0.2584250673389046,1.0401227422574948
31.6,7.915799809837177,218.6921055835275,11.026184689407417,19.84204141234428,-104.03109070596432,26.458032789999997,295.2612423703284,-0.04738589356697691,0.3797383137495785,0.11433342933578569,0.9167776486683151,2.2499999658975548e-05,5.699999974240118e-06,0.3114163547064619,-0.002239864165937192,0.04836447243055393,0.08583485799411432,8.999995770860098e-06,3.599999978120964e-05,0.1718369607999074,314.1682615711827,0,0.36865799813290034,8.999995770860098e-06,3.599999978120964e-05,0.1718369607999074,1.6780687136663655
31.8,7.877578432721631,218.38232166987942,11.026140643956698,19.847914139107004,-104.03108662596429,26.458033659999998,295.4374241732101,-0.04013550552883355,0.38057292421810235,0.09687440462446793,0.9187865586068847,2.040000012470962e-05,4.350000004649261e-06,0.8809090144086471,-0.0038387921670813134,0.04719453172333418,0.08528419222654351,-1.0499997671329674e-05,-6.749999847954309e-06,2.8474632985109363,314.3338450307791,0,0.3525765551240006,-1.0499997671329674e-05,-6.749999847954309e-06,2.8474632985109363,2.203287876747074
32.0,7.837397586252186,218.06571433346755,11.026146353172315,19.84715291035782,-104.0310822259643,26.458035709999997,295.4145873107346,0.08267978992385855,-0.37364510476358137,0.19978046498737045,0.902020595016427,2.1999999972877127e-05,1.0249999995437555e-05,-0.11418431237757472,-0.0052371878891556475,0.046163879646091,0.08479437816432459,7.999999240837559e-06,2.9499999953941576e-05,-4.975466633931127,314.3123798368569,0,0.3070319789264001,7.999999240837559e-06,2.9499999953941576e-05,-4.975466633931127,2.6089032684412192
32.1,7.81760000129476,217.90486942364905,11.026142299661577,19.847693378456185,-104.03108026596428,26.458036720000003,295.4308013536856,-0.09024155664028898,0.3718912096440088,0.21775385587601953,0.8978511279136309,1.9600000200625522e-05,1.0100000054080594e-05,0.16214042950991595,-0.006853935877660149,0.044963259627876326,0.08421814299300295,-2.3999997722515705e-05,-1.499999413569595e-06,2.7632474188748675,314.3276185079211,0,0.25493049930430445,-2.3999997722515705e-05,-1.499999413569595e-06,2.7632474188748675,2.686363234544424
32.2,7.7975874368221,217.74233985920674,11.026143962405904,19.84747167921277,-104.03107784596429,26.45803788,295.4241503763831,0.08465228344670088,-0.3732031743262065,0.2046965015277108,0.9009177120261419,2.4199999870688425e-05,1.159999996502831e-05,-0.06650977302456246,-0.008448594905391797,0.04376771583876619,0.0836373425360442,4.599999670062838e-05,1.4999999109476941e-05,-2.2865020253447517,314.3213666804413,0,0.13658078145302815,4.599999670062838e-05,1.4999999109476941e-05,-2.2865020253447517,2.4748383421880233
32.41,7.75586099985013,217.39557644805382,11.026141289685832,19.84782804188896,-104.0310743459643,26.458039990000003,295.4348412566688,-0.10268360266574034,0.3686498246041966,0.24760875730945103,0.8900804951612797,1.6666666624587873e-05,1.0047619066914233e-05,0.050908953741263974,-0.009842207322167798,0.04271520094020399,0.08312132622915278,-3.5873015457622744e-05,-7.392289991019632e-06,0.5591367941229997,314.3314138581142,0,0.25072323267497787,-3.5873015457622744e-05,-7.392289991019632e-06,0.5591367941229997,2.271217306798152
32.6,7.71753729597526,217.07552064172225,11.026155024806027,19.845996692529653,-104.03107256596428,26.458041389999998,295.3799007758896,0.12516143005353186,-0.3616368701737506,0.30219470800656056,0.8730588462473294,9.368421154632225e-06,7.368421026548519e-06,-0.2891604251535728,-0.01123444454517138,0.04165853156058645,0.0826001373485892,-3.8411818262923485e-05,-1.4101042317713923e-05,-1.789838836288569,314.27977630734415,0,0.22085023887693506,-3.8411818262923485e-05,-1.4101042317713923e-05,-1.789838836288569,3.0628100652671746
32.7,7.697004582656061,216.90467764296184,11.02617214722028,19.843713703962738,-104.0310696159643,26.458043600000003,295.3114111188821,0.12089775261337227,-0.3630844845097506,0.291910749179798,0.8765509141142992,2.9499999811832402e-05,2.2100000052205045e-05,-0.6848965700748879,-0.012822817758619038,0.04044399750667449,0.08199569215422245,0.00020131578657199892,0.00014731579025656317,-3.957361449213095,314.2154055001227,0,0.24427482446735369,0.00020131578657199892,0.00014731579025656317,-3.957361449213095,2.7763669162847577
32.8,7.677169601197109,216.732194442381,11.02617246660651,19.843671119131876,-104.03106859596429,26.45804509,295.3101335739563,0.17816942613936737,-0.33867713402104815,0.4307918259040241,0.8172954528288618,1.0200000133409628e-05,1.489999995385545e-05,-0.012775449258129628,-0.01438719212827067,0.0392355439042182,0.08138699774440863,-0.0001929999967842387,-7.200000098350003e-05,6.721211208167964,314.2142046035962,0,0.26624029103873376,-0.0001929999967842387,-7.200000098350003e-05,6.721211208167964,3.008908552589748
33.0,7.63724268204229,216.38233817188154,11.02618164824178,19.84244690109595,-104.0310672159643,26.458048669999997,295.27340703287854,0.21651864847004076,-0.3155412549198256,0.5227508828064141,0.761764337464969,6.8999999314199995e-06,1.789999998891264e-05,-0.18363270538884274,-0.01577046828129237,0.03815920840154128,0.0808402980150316,-1.6500001009947908e-05,1.5000000175285742e-05,-0.8542862806535535,314.17968773668446,0,0.23610711926867878,-1.6500001009947908e-05,1.5000000175285742e-05,-0.8542862806535535,2.6954243264001674
33.2,7.598130693226833,216.02601402597276,11.026173611427286,19.843518476361844,-104.03106689596427,26.45805101,295.30555429085535,-0.2516027465805831,0.2883447014603793,0.6074158348418327,0.6961317365529537,1.600000132384571e-06,1.1700000008829481e-05,0.16073628988408245,-0.017347412429432763,0.03692283638041764,0.0802069032496282,-2.649999899517677e-05,-3.099999990041536e-05,1.7218449763646015,314.20990076347,0,0.15561786051039178,-2.649999899517677e-05,-3.099999990041536e-05,1.7218449763646015,2.0479077601983566
33.3,7.578604710379347,215.8454462506239,11.02617014906337,19.843980124883842,-104.03106657596427,26.45805625,295.31940374651526,-0.26222898117594257,0.2787159095429985,0.6330612472635486,0.6728943902368085,3.1999999805522746e-06,5.2400000001287734e-05,0.1384945565990926,-0.0189411193972645,0.03566664712805402,0.07955952702575135,1.5999998481677947e-05,0.00040699999992460564,-0.22241733284991116,314.22291734158756,0,0.21596015184884787,1.5999998481677947e-05,0.00040699999992460564,-0.22241733284991116,0.7619139960820273
33.5,7.539954994672122,215.4795394208042,11.026156026549527,19.845863126729743,-104.03106652596429,26.458059220000003,295.37589380189223,-0.2683112381833729,0.27286569705072505,0.6477600477196364,0.6587566405098182,2.4999991410367884e-07,1.4850000020771647e-05,0.2824502768848407,-0.020314735949877195,0.034575922421586,0.0789928545985832,-1.4750000332242769e-05,-0.00018774999990257775,0.7197786014287303,314.2760098058478,0,0.3375178897256466,-1.4750000332242769e-05,-0.00018774999990257775,0.7197786014287303,3.04863076007717
33.61,7.518802442298446,215.27559793865814,11.026147378159397,19.847016245413577,-104.03106660596427,26.45806535,295.41048736240725,-0.27235715307491487,0.26882743126535164,0.6575298409321633,0.6490053171214578,-7.272725290683696e-07,5.572727268734305e-05,0.3144869137729132,-0.021682697538752717,0.033478456593006356,0.07841634604966448,-8.884294937927759e-06,0.0003716115696961056,0.2912421535279334,314.3085237230044,0,0.45590483233288825,-8.884294937927759e-06,0.0003716115696961056,0.2912421535279334,4.248354162343697
33.7,7.500539550820737,215.10732521075317,11.026165185140787,19.844641981228346,-104.0310668859643,26.458068330000003,295.3392594368504,0.2829732650346462,-0.25762907547288,0.6831554496523955,0.6219742939678892,-3.111111368525481e-06,3.311111116646292e-05,-0.7914213950761327,-0.02324072718533013,0.032218715028175235,0.07774914346771092,-2.6487098216189124e-05,-0.0002512906835653253,-12.287870098322268,314.2415797151837,0,0.5396492770184256,-2.6487098216189124e-05,-0.0002512906835653253,-12.287870098322268,5.513758413604745
33.9,7.46317692780435,214.72886979090566,11.026127551590658,19.849659787912074,-104.0310675059643,26.458075219999998,295.48979363736225,-0.2824625606367448,0.25818890576783515,0.6819275125066162,0.6233203497909243,-3.1000000433323954e-06,3.444999997270843e-05,0.7526710025592981,-0.024599181158324622,0.031111709661995716,0.07715807344430528,5.555662596542863e-08,6.694444031227715e-06,7.720461988177319,314.38306394370005,0,0.727933217215982,5.555662596542863e-08,6.694444031227715e-06,7.720461988177319,6.703109065806996
34.1,7.4233912110506095,214.3442404412284,11.026155412430146,19.84594500931385,-104.0310682859643,26.45807842,295.3783502794156,0.3009401690046482,-0.23639294409443262,0.7265298432640074,0.5707081368866199,-3.899999967416024e-06,1.6000000009341648e-05,-0.5572167897332668,-0.026126123093379704,0.029857166772289983,0.07648263888102431,-3.999999620418086e-06,-9.224999981683261e-05,-6.549438961462731,314.2783207543705,0,0.7880666185044113,-3.999999620418086e-06,-9.224999981683261e-05,-6.549438961462731,8.483884488072707
34.2,7.402910292171711,214.14963186814148,11.02618600917955,19.841865442726533,-104.0310704359643,26.4580852,295.25596328179597,0.3088038868842268,-0.22602382309822652,0.7455089465378295,0.5456828762837541,-2.1500000002560832e-05,6.779999999650858e-05,-1.2238699761962661,-0.02766842291207063,0.02858359150497979,0.07579348747533508,-0.00017600000035144557,0.000517999999871662,-6.666531864629898,314.1632978913423,0,1.1410845543194923,-0.00017600000035144557,0.000517999999871662,-6.666531864629898,12.36964046487267
34.4,7.365793315834691,213.75587017127594,11.026155251483354,19.845966468886086,-104.03107270596428,26.45809261,295.37899406658255,-0.30768132167203455,0.22754958450925872,0.7428185563407521,0.549339588269091,-1.1349999908816486e-05,3.7050000010197775e-05,0.6151539239329071,-0.029031291578919056,0.027448828217528844,0.07517441784931395,5.075000046872281e-05,-0.0001537499999315573,9.195119500646062,314.2789284834399,0,1.0658454974839457,5.075000046872281e-05,-0.0001537499999315573,9.195119500646062,16.158251325302285
34.5,7.3441504041744246,213.5567345479524,11.026219164260217,19.837444765304284,-104.0310748459643,26.45809596,295.1233429591284,0.3356241356909608,-0.183856054943638,0.8102646247245832,0.44387456395043373,-2.1400000207449616e-05,3.3500000000685285e-05,-2.5565110745412403,-0.030367072425898263,0.02632482483262901,0.07455493986715078,-0.00010050000298632987,-3.55000000951244e-05,-31.716649984741025,314.03866471313137,0,1.2001431953231019,-0.00010050000298632987,-3.55000000951244e-05,-31.716649984741025,16.53802773894794
