time,position_x,position_y,position_z,ground_station_distance,comm_range_status,wind_speed,wind_angle,battery_voltage,battery_current,velocity_x,velocity_y,velocity_z,velocity_total,acceleration_x,acceleration_y,acceleration_z,acceleration_total,angular_x,angular_y,angular_z,orientation_w,orientation_x,orientation_y,orientation_z,linear_acceleration_x,linear_acceleration_y,linear_acceleration_z
0.0,-91.44481158672653,33.919987006255646,269.3324017,286.44835780665005,0,7.693324017,180.0,11.032666899575,18.977746723333333,0.004466325492202827,-0.004517858821522225,0.012359152323995204,0.027228369938012326,0.04365761813360794,-0.046199262144242,0.2606566705736669,0.22537456107187373,2930537181666901.5,0.0,-40511579554099.0,0.7876556253637889,0.20074942483986152,0.48074758400409257,-0.3289073497711347,0.04365761813360794,-0.046199262144242,0.2606566705736669
0.2,-91.44391832162809,33.91908343449134,269.3348735304648,286.45028978641307,0,7.733346068691314,180.59998222238025,11.032666281617383,18.97782911768216,0.004466325492202827,-0.004517858821522225,0.012359152323995204,0.027228369938012326,0.04365761813360794,-0.046199262144242,0.2606566705736669,0.22537456107187373,2930537181666901.5,0.0,-40511579554099.0,0.7876556253637889,0.20074942483986152,0.48074758400409257,-0.3289073497711347,0.04365761813360794,-0.046199262144242,0.2606566705736669
0.3,-91.44303511289753,33.91816965598775,269.3387160124029,286.45351254030874,0,7.753378160529021,180.89994000119998,11.032665320996898,18.97795720041343,0.00883208730556362,-0.009137785035946424,0.03842481938136189,0.027228369938012326,0.04365761813360794,-0.046199262144242,0.2606566705736669,0.22537456107187373,2930537181666901.5,0.0,-40511579554099.0,0.7461923715800279,0.2287156917495131,0.5391525946455258,-0.3165447150566766,0.04365761813360794,-0.046199262144242,0.2606566705736669
0.5,-91.44216225001173,33.91724573089569,269.3430996973098,286.45724628551886,0,7.793389335514455,181.4997222376539,11.032664225075672,18.97810332324366,0.004364314428997318,-0.0046196254603003695,0.0219184245344195,0.027228369938012326,-0.02233886438283151,0.02259079787823027,-0.08253197423471195,0.22537456107187373,2930537181666901.5,0.0,-40511579554099.0,0.7342430351576676,0.23771213152979798,0.5515926353914757,-0.3164264091821391,-0.02233886438283151,0.02259079787823027,-0.08253197423471195
0.6,-91.44129950222211,33.91631166958971,269.3474454367244,286.4609464049385,0,7.813402467326133,181.79952003839853,11.03266313864082,18.978248181224146,0.008627477896254733,-0.00934061305976286,0.043457394145889346,0.034217743804145155,0.042631634672574165,-0.04720987599462492,0.2153896961146985,0.22537456107187373,2930537181666901.5,0.0,-40511579554099.0,0.7331212029896449,0.24042174675967784,0.5493518232394877,-0.3208477204461515,0.042631634672574165,-0.04720987599462492,0.2153896961146985
0.81,-91.44044713855413,33.915367542667674,269.35001968225174,286.4629830035328,0,7.855323107926513,182.42881919217493,11.032662495079437,18.97833398940839,0.0040588746094001515,-0.0044958424858859425,0.012258312034960212,0.027469696049878367,-0.02175525374692657,0.023070336066080555,-0.14856705767109105,0.22126494615832581,2930537181666901.5,0.0,-40511579554099.0,0.7762010132476062,0.21433078302087197,0.4822544467554747,-0.3449709423525705,-0.02175525374692657,0.023070336066080555,-0.14856705767109105
0.9,-91.43960493780695,33.914413290950286,269.35422728558433,286.4665574489731,0,7.873299371251866,182.698380291575,11.032661443178604,18.978474242852812,0.009357786079849325,-0.010602796859870981,0.04675114813987119,0.026354980906538372,0.05887679411610195,-0.06785504859983378,0.383253734499011,0.23399390383125285,2930537181666901.5,0.0,-40511579554099.0,0.7319216160444627,0.24512225487141792,0.5432760062167064,-0.3302378070464357,0.05887679411610195,-0.06785504859983378,0.383253734499011
1.1,-91.43877314855291,33.913449005480636,269.3537903985242,286.4657669956604,0,7.913094505659592,183.29704301743396,11.032661552400368,18.97845967995081,0.004158946270180762,-0.004821427348247196,-0.0021844353005917574,0.022004772658566603,-0.025994199048342808,0.028906847558118915,-0.24467791720231466,0.20180873715934838,3031210579730569.5,0.0,-20221740494057.355,0.8967825019993794,-0.06849990480696247,-0.1495510420659597,-0.41075953180194846,-0.025994199048342808,0.028906847558118915,-0.24467791720231466
1.2,-91.43795166913725,33.91247467752377,269.35495257300516,286.46648219260663,0,7.93297394030789,183.59616122861277,11.032661261856749,18.97849841910017,0.008214794156629079,-0.009743279568681385,0.01162174480953128,0.022424633709515668,0.04055847886448322,-0.049218522204341954,0.13806180110123056,0.20109158188511858,3031210579730569.5,0.0,-20221740494057.355,0.8455434330752829,0.15231407296777963,0.32764614694684924,-0.39307089481429963,0.04055847886448322,-0.049218522204341954,0.13806180110123056
1.4,-91.43714042767759,33.91149029856614,269.359482061114,286.47036565776256,0,7.972681049899613,184.19390487759242,11.032660129484722,18.978649402037135,0.004056207298290816,-0.00492189478812577,0.022647440544290024,0.014926691319199898,-0.02079293429169132,0.024106923902778084,0.05512847867379373,0.1287417152535188,3031210579730569.5,0.0,-20221740494057.355,0.7210142941371454,0.2575589076761426,0.5460097369336687,-0.34011051718553525,-0.02079293429169132,0.024106923902778084,0.05512847867379373
1.5,-91.4363396820636,33.91049595031523,269.3604082151129,286.4708632022851,0,7.992480347098327,184.49250374910727,11.032659897946221,18.978680273837096,0.008007456139864637,-0.009943482509129345,0.009261539988756331,0.02153233480984852,0.03951248841573818,-0.0502158772100357,-0.1338590055553368,0.1371466876306966,3031210579730569.5,0.0,-20221740494057.355,0.8579536392142633,0.13326526342403985,0.2784227776428308,-0.4106539655393259,0.03951248841573818,-0.0502158772100357,-0.1338590055553368
1.7,-91.43554928995658,33.90949161469899,269.3622850874611,286.4722568121773,0,8.031987549008603,185.08908923171782,11.032659428728135,18.978742836248703,0.003951960535104605,-0.0050216780811851445,0.00938436174095614,0.020312911289292666,-0.020277478023800165,0.024609022139721007,0.0006141087609990403,0.13595556555536142,3031210579730569.5,0.0,-20221740494057.355,0.7951988378890732,0.2042073379711627,0.42056747032912306,-0.38611031356279646,-0.020277478023800165,0.024609022139721007,0.0006141087609990403
1.8,-91.43476916878906,33.90847730386541,269.3660495308367,286.4754273683271,0,8.051719642160014,185.38704932800138,11.03265848761729,18.978868317694555,0.0078012116752290625,-0.010143108335824982,0.03764443375587231,0.02362707927860596,0.038492511401244545,-0.05121430254639833,0.28260072014916143,0.18236538083434237,3031210579730569.5,0.0,-20221740494057.355,0.7293314266989139,0.25725440969882823,0.5224003238023357,-0.35915698574724825,0.038492511401244545,-0.05121430254639833,0.28260072014916143
2.0,-91.43399954576446,33.907453080182,269.3678748981585,286.47677685018306,0,8.091017410571707,185.98223801800413,11.03265803127546,18.97892916327195,0.0038481151229774477,-0.005121118417044102,0.009126836609141266,0.02266294570351949,-0.01976548276125808,0.025109949593904404,-0.14258798573365525,0.18251777779628348,3031210579730569.5,0.0,-20221740494057.355,0.7937755611746441,0.20609292773633575,0.41265448333939475,-0.3964370580544175,-0.01976548276125808,0.025109949593904404,-0.14258798573365525
2.1,-91.43324025785667,33.906418936235326,269.3716740426079,286.4799843717662,0,8.110636540118279,186.27944015899064,11.032657081489347,18.979055801420262,0.00759287907797556,-0.010341439466756688,0.03799144449374122,0.028458752226615237,0.03744763954998109,-0.05220321049712581,0.2886460788459993,0.23624710596412965,3031210579730569.5,0.0,-20221740494057.355,0.7247628937691204,0.2634291253730467,0.520223601295613,-0.3670030631692676,0.03744763954998109,-0.05220321049712581,0.2886460788459993
2.3,-91.43249151180966,33.90537490483048,269.37344801765045,286.4812898749447,0,8.149689527246881,186.87299398884537,11.032656637995586,18.979114933921682,0.0037437302350440457,-0.005220157024226076,0.008869875212838009,0.022447846706144154,-0.0192457442146576,0.025606412212653095,-0.14560784640451624,0.20823143521090767,3031210579730569.5,0.0,-20221740494057.355,0.7923361159466882,0.20766118403454234,0.40447193415525934,-0.40679573067153985,-0.0192457442146576,0.025606412212653095,-0.14560784640451624
2.4,-91.43175313413714,33.9043209989906,269.3772704770579,286.48452368889735,0,8.169177957624848,187.16931929764107,11.032655682380735,18.979242349235264,0.007383776725191631,-0.010539058398819625,0.038224594074449635,0.023621030606107124,0.03640046490147582,-0.05318901374593545,0.293547188616116,0.1976065997396736,3031210579730569.5,0.0,-20221740494057.355,0.7204034634480666,0.2693606071407705,0.5176077936566589,-0.3748944986508488,0.03640046490147582,-0.05318901374593545,0.293547188616116
2.61,-91.43102529112224,33.90325725195634,269.37884927492956,286.48565003288275,0,8.209882119087215,187.79054958741378,11.032655287681267,18.97929497583099,0.003465919118571579,-0.005065462067898623,0.007518085103204917,0.020653342597529555,-0.01865646479342882,0.026064744432957157,-0.14622147129164154,0.15564557784449484,3031210579730569.5,0.0,-20221740494057.355,0.7990956462527278,0.20000991657376266,0.3791996296068076,-0.42148525753358423,-0.01865646479342882,0.026064744432957157,-0.14622147129164154
2.7,-91.43030793881705,33.902183697185386,269.37967286571427,286.4860684613893,0,8.227259602034804,188.0563308041621,11.03265508178357,18.97932242885714,0.007970581168750488,-0.011928386343937605,0.009151008718946358,0.02329584277646142,0.05005180055754327,-0.07625471417821066,0.018143595730460396,0.14110635357862072,-5.040362642827771,0.0,0.43845848751836625,0.8466223930601703,0.13203629589425425,0.24702749815734826,-0.4525200054027631,0.05005180055754327,-0.07625471417821066,0.018143595730460396
2.9,-91.42960104304235,33.901100338351924,269.38455660423193,286.4903067957091,0,8.26575001625199,188.64590342175129,11.032653860848942,18.979485220141065,0.003534478873490348,-0.005416794167310009,0.024418692588312783,0.0179276106221314,-0.02218051147630073,0.032557960883138025,0.07633841934683222,0.09128039733413802,0.03734200186836745,0.0,-0.4403773909707098,0.6968550589891851,0.29043562729989597,0.5363057253400432,-0.3773808979315001,-0.02218051147630073,0.032557960883138025,0.07633841934683222
3.0,-91.42890471938722,33.9000072193461,269.3865960456952,286.4918728982466,0,8.28490637377963,188.94011988577776,11.032653350988577,18.979553201523174,0.0069632365513427824,-0.010931190058229834,0.020394414632960416,0.025415133873993995,0.034287576778524315,-0.05514395890919821,-0.04024277955352363,0.13668750636938545,17.318785141679577,0.0,-0.4312161698990195,0.7684041656336441,0.23159569034235641,0.4221204160628882,-0.42158371504910475,0.034287576778524315,-0.05514395890919821,-0.04024277955352363
3.21,-91.42821892320873,33.89890436427354,269.38911404573116,286.49389120697197,0,8.324922417642766,189.55666554280648,11.032652721488567,18.979637134857704,0.003265696088035276,-0.005251690821713359,0.011990476361591262,0.02664676620587416,-0.01760733553955956,0.02704523445960227,-0.040018753673186455,0.14207194875849943,6.556901833062881,0.0,0.44081386255757876,0.746409961556751,0.2527872939642614,0.45486834675438503,-0.4148078355335253,-0.01760733553955956,0.02704523445960227,-0.040018753673186455
3.3,-91.42754361963152,33.89779176745476,269.39315236040255,286.4973412751058,0,8.342017580393762,189.82033303863912,11.0326517119099,18.979771745346753,0.007503373080118724,-0.01236218687531557,0.04487016301545238,0.030719312170999387,0.04708529991203838,-0.07900551170669137,0.36532985170956855,0.16979078051181073,4608127379266.627,0.0,-9644691584022.598,0.704410731140222,0.2887674312714221,0.5130672354446129,-0.396460470166478,0.04708529991203838,-0.07900551170669137,0.36532985170956855
3.5,-91.42687893354758,33.89666946342468,269.39759994622955,286.5011784426566,0,8.379771614373198,190.40498125354344,11.032650600013442,18.97991999820765,0.0033234304196838563,-0.005611520150416988,0.02223792913497389,0.03071173293986587,-0.020899713302174317,0.033753333624492884,-0.11316116940239235,0.17601569804319483,4608127379266.627,0.0,-9644691584022.598,0.695416425916343,0.2968169532015486,0.5207576520923601,-0.39636745406900104,-0.020899713302174317,0.033753333624492884,-0.11316116940239235
3.6,-91.42622476961584,33.89553749693206,269.4019709602113,286.5049458474963,0,8.398568176152292,190.69661818922106,11.032649507259947,18.980065698673712,0.006541639317418906,-0.011319664926219265,0.04371013981767642,0.03742592739930819,0.032182088977350476,-0.057081447758022714,0.21472210682702514,0.21160922264405482,4608127379266.627,0.0,-9644691584022.598,0.6946765026613405,0.29852320551879713,0.5173037457123905,-0.4008806394538416,0.032182088977350476,-0.057081447758022714,0.21472210682702514
3.8,-91.42558126226187,33.89439588293894,269.4066148598472,286.50897213116014,0,8.435907087424438,191.2784529096354,11.032648346285038,18.98022049532824,0.003217536769852818,-0.005708069965599812,0.023219498179400975,0.033005587623387164,-0.016620512737830464,0.0280579748030973,-0.10245320819137738,0.15725862518614786,4608127379266.627,0.0,-9644691584022.598,0.6884755909799023,0.30443782622383664,0.5210786936953148,-0.4022386922783085,-0.016620512737830464,0.0280579748030973,-0.10245320819137738
3.9,-91.42494831567763,33.893244646620126,269.4111340031583,286.51288336140783,0,8.454488170277905,191.56862483514698,11.03264721649921,18.98037113343861,0.006329465842469512,-0.011512363188117537,0.04519143311085823,0.03660432154306929,0.031119290726166916,-0.05804293222517719,0.21971934931457235,0.16998052003091293,4608127379266.627,0.0,-9644691584022.598,0.6883725058708863,0.3055959206739541,0.5167537797582112,-0.4070871620845801,0.031119290726166916,-0.05804293222517719,0.21971934931457235
4.11,-91.42432605382096,33.8920838133626,269.4162250487086,286.517334657266,0,8.493214749186563,192.17629692654444,11.032645943737823,18.980540834956955,0.002963151698392737,-0.005527777416772096,0.024243074049189996,0.03425334062173245,-0.016030067352746515,0.02849802748259728,-0.09975409076984854,0.13469362950914698,4608127379266.627,0.0,-9644691584022.598,0.6784620560292955,0.3144116654626464,0.5252752229087357,-0.4061040302036955,-0.016030067352746515,0.02849802748259728,-0.09975409076984854
4.2,-91.42371441041554,33.890913408765,269.41968685562665,286.5202562362067,0,8.509717774675407,192.43600418538512,11.032645078286093,18.98065622852089,0.006796037838007083,-0.013004495528908462,0.03846452131155179,0.03746009778428315,0.0425876237734928,-0.0830746456904042,0.1580160806929091,0.12947530694623133,4608127379266.627,0.0,-9644691584022.598,0.7043898239059295,0.293895949058199,0.4851956294324952,-0.4266677258529859,0.0425876237734928,-0.0830746456904042,0.1580160806929091
4.4,-91.42311338895037,33.889733478637,269.4263298836264,286.5261714600302,0,8.546142228968263,193.01151495687571,11.032643417529092,18.980877662787545,0.0030051073258618973,-0.005899650640017734,0.03321513999878786,0.034295272600429375,-0.018954652560725913,0.035524224444453606,-0.026246906563819627,0.09351542601567728,4608127379266.627,0.0,-9644691584022.598,0.6591846464099941,0.33142089737552966,0.5407550310849176,-0.4040046869486534,-0.018954652560725913,0.035524224444453606,-0.026246906563819627
4.5,-91.42252304267959,33.888543978998776,269.4301199930287,286.5294063302468,0,8.564232268152749,193.2984092997603,11.032642470001742,18.981003999767623,0.0059034627078347265,-0.011894996382224618,0.03790109402302746,0.03911207559859473,0.028983553819728395,-0.05995345742206905,0.04685954024239612,0.10860792935355834,4608127379266.627,0.0,-9644691584022.598,0.6932203332409584,0.304868247022834,0.4916553176940374,-0.4298557550175336,0.028983553819728395,-0.05995345742206905,0.04685954024239612
4.7,-91.42194337462213,33.887345006080444,269.43622404478214,286.5348193666239,0,8.600134811205958,193.87041214631236,11.032640943988804,18.981207468159404,0.002898340287273979,-0.0059948645916563185,0.030520258767126024,0.03779887273734775,-0.015025612102803725,0.02950065895284147,-0.036904176279507137,0.08679935321695398,4608127379266.627,0.0,-9644691584022.598,0.6597747338723965,0.33329906437944745,0.53134893303815,-0.41385667275835114,-0.015025612102803725,0.02950065895284147,-0.036904176279507137
4.8,-91.42137437756145,33.886136576321455,269.4409515004844,286.5389402692726,0,8.61796786608781,194.1554952277253,11.032639762124878,18.981365050016148,0.0056899706068236555,-0.012084297589893865,0.04727455702266087,0.04085794409782158,0.027916303195496865,-0.060894329982375685,0.16754298255534902,0.10708645916309731,4608127379266.627,0.0,-9644691584022.598,0.6733713310601612,0.3232397682944335,0.5094790783709532,-0.42722145475328355,0.027916303195496865,-0.060894329982375685,0.16754298255534902
5.0,-91.42081610404524,33.884918696370036,269.44774102240336,286.5450025288618,0,8.65332848743244,194.72376135582684,11.032638064744399,18.981591367413447,0.002791367581025381,-0.006089399757094322,0.033947609594804334,0.04065028886198095,-0.01449301512899136,0.02997448916399769,-0.06663473713928261,0.10182480953400912,4608127379266.627,0.0,-9644691584022.598,0.6501855397000527,0.34291963069296044,0.5344252441459056,-0.417198453101092,-0.01449301512899136,0.02997448916399769,-0.06663473713928261
5.1,-91.42026851638524,33.88369141308256,269.45247017349755,286.5491296828252,0,8.67087919550079,195.00691914633666,11.032636882456625,18.981749005783254,0.005475876600087323,-0.012272832874771255,0.04729151094181833,0.04426373233227809,0.026845090190619515,-0.06183433117676955,0.1334390134701404,0.11425599741956576,4608127379266.627,0.0,-9644691584022.598,0.6693638444221144,0.3280883931882651,0.5056503979401682,-0.43431293452824915,0.026845090190619515,-0.06183433117676955,0.1334390134701404
5.3,-91.41973169665674,33.882454723523,269.4601775174376,286.5560596974164,0,8.70566845758407,195.57122125711322,11.03263495562064,18.982005917247918,0.0026840986424758718,-0.006183447797809544,0.03853671970034608,0.042864887745823144,-0.013958889788057243,0.030446925384808525,-0.04377395620736121,0.08686182580289739,4608127379266.627,0.0,-9644691584022.598,0.6401358945295899,0.35288863595146,0.5378822028194284,-0.41997426473682764,-0.013958889788057243,0.030446925384808525,-0.04377395620736121
5.4,-91.4192055866986,33.881208704962326,269.46491891862695,286.5602030660128,0,8.722921172492494,195.85234049737906,11.032633770270342,18.982163963954232,0.0052610995814461325,-0.01246018560671296,0.047414011893351676,0.05335978571699429,0.02577000938970247,-0.06276737808903382,0.08877292193005552,0.1718820388920824,4608127379266.627,0.0,-9644691584022.598,0.6652072241380178,0.33294368462882645,0.5019855765815318,-0.441201011699294,0.02577000938970247,-0.06276737808903382,0.08877292193005552
5.61,-91.41869024811272,33.87995332487787,269.4736617422226,286.56811151406583,0,8.758802992017447,196.44038273173368,11.032631584564443,18.98245539140742,0.002453993266049977,-0.005978000402183712,0.04163249331256902,0.05049424173005761,-0.013367172930457886,0.03086754859299642,-0.027531040860869802,0.19423771344180313,226310397488.32135,0.0,4536719464227.25,0.6307495263279065,0.3623235953427275,0.540399152775727,-0.422901174004421,-0.013367172930457886,0.03086754859299642,-0.027531040860869802
5.7,-91.41818565226401,33.87868867095275,269.4813794541554,286.5750583817957,0,8.774077892009492,196.69142112358423,11.03262965513646,18.982712648471846,0.005606620541224562,-0.014051710279103567,0.08575235480887197,0.0613053162561842,0.03502919194638433,-0.08970788752133185,0.4902206832922558,0.3000334496006419,226310397488.32135,0.0,4536719464227.25,0.6341764337681434,0.36057430170367394,0.532085367656242,-0.4297575890314787,0.03502919194638433,-0.08970788752133185,0.4902206832922558
5.9,-91.41769185028002,33.877414731075255,269.48821142115156,286.58117472553096,0,8.807604160037084,197.24711973558604,11.032627947144713,18.982940380705053,0.0024690099199631255,-0.0063696993874628955,0.034159834980869136,0.06446542058788841,-0.01568805310630717,0.03841005445820332,-0.25796259914001396,0.3059463754502685,226310397488.32135,0.0,4536719464227.25,0.6380427243903006,0.3582441369286749,0.5230772704495197,-0.4369814519495214,-0.01568805310630717,0.03841005445820332,-0.25796259914001396
6.0,-91.41720880305068,33.87613153333823,269.4974277107527,286.5895355656186,0,8.824259223897597,197.52382540388928,11.032625643072311,18.983247590358424,0.0048304722933778695,-0.012831977370240156,0.09216289601113237,0.06591267064505257,0.023614623734147522,-0.06462277982777283,0.5800306103026344,0.3346094483793071,226310397488.32135,0.0,4536719464227.25,0.6227553641433018,0.3716135703608985,0.5369619970958843,-0.43098831124424775,0.023614623734147522,-0.06462277982777283,0.5800306103026344
6.2,-91.4167365412281,33.874839126038445,269.5103759913361,286.6014082530905,0,8.85717408098797,198.07488797572614,11.032622406002165,18.983679199711204,0.0023613091128993325,-0.00646203649893095,0.06474140291714997,0.06306797977989345,-0.012345815902392674,0.031849704356546,-0.13710746546991187,0.2607426453841005,226310397488.32135,0.0,4536719464227.25,0.6093352830880722,0.38320343661887174,0.5480132800139209,-0.42608342361073964,-0.012345815902392674,0.031849704356546,-0.13710746546991187
6.3,-91.4162751052264,33.87353752767598,269.51511563213575,286.6055642393511,0,8.873440672205897,198.34922038768065,11.032621221091965,18.98383718773786,0.004614360017001234,-0.013015983624669094,0.04739640799641637,0.06594413562698763,0.0225305090410191,-0.06553947125738167,-0.17344994920733664,0.26100420551127534,226310397488.32135,0.0,4536719464227.25,0.6533266651239897,0.3462647526193907,0.49013635506020775,-0.461553185645698,0.0225305090410191,-0.06553947125738167,-0.17344994920733664
6.5,-91.41582447522131,33.87222674695361,269.5296202032623,286.6189053014409,0,8.905669013504703,198.89542650167127,11.032617594949183,18.984320673442078,0.002253150025453008,-0.006553903611852257,0.07252285563282605,0.06299462939387304,-0.011806049957741122,0.03231040006408416,0.1256322381820483,0.17586078088816803,226310397488.32135,0.0,4536719464227.25,0.6023219317433502,0.39073253344332426,0.5475071004697376,-0.42985154738018705,-0.011806049957741122,0.03231040006408416,0.1256322381820483
6.6,-91.4153846811501,33.87090684277612,269.5343411757234,286.62304854945967,0,8.921577115704102,199.16727592796997,11.03261641470607,18.98447803919078,0.004397940712124198,-0.013199041774854028,0.0472097246108662,0.05981907946278453,0.021447906866711972,-0.06645138163001794,-0.25313131021959945,0.21103848833888894,226310397488.32135,0.0,4536719464227.25,0.6496439769788362,0.3502024700119404,0.4858192137920539,-0.4682954459346451,0.021447906866711972,-0.06645138163001794,-0.25313131021959945
6.8,-91.41495568271132,33.869577844249754,269.5499648214441,286.63744689251877,0,8.953085696251378,199.70840710895135,11.032612508794639,18.98499882738147,0.0021449921938909693,-0.006644992631841256,0.0781182286036141,0.0672697946727924,-0.011264742591166131,0.03277024571506383,0.15454251996373938,0.21344441654536633,226310397488.32135,0.0,4536719464227.25,0.5965672375979164,0.39721801510203514,0.5456214015128805,-0.4343071099053185,-0.011264742591166131,0.03277024571506383,0.15454251996373938
6.9,-91.41453756936453,33.86823977068149,269.5546838132865,286.6415931260953,0,8.9686212025768,199.9776648134484,11.032611329046677,18.98515612710955,0.004181133467966424,-0.013380735682630913,0.04718991842366879,0.08639146843000305,0.020361412740754443,-0.06735743050789621,-0.30928310179945145,0.3510759520652342,226310397488.32135,0.0,4536719464227.25,0.6457471351946199,0.354228036564184,0.4818058500800002,-0.47475915823553416,0.020361412740754443,-0.06735743050789621,-0.30928310179945145
7.1,-91.41413031033018,33.866892641578445,269.57195072507045,286.65754177294906,0,8.999387049293778,200.51350461616315,11.032607012318731,18.985731690835685,0.002036295171734544,-0.006735645515227897,0.08633455891981642,0.08364103207350163,-0.01072419148115944,0.0332254508370152,0.19572320248073885,0.4318643544745077,226310397488.32135,0.0,4536719464227.25,0.590365422939396,0.404008339180256,0.5442052288158967,-0.4382768510882555,-0.01072419148115944,0.0332254508370152,0.19572320248073885
7.2,-91.41373386458933,33.8655365066472,269.5887375315929,286.6730414702909,0,9.014656719258877,200.78006289936673,11.032602815617102,18.986291251053096,0.003964457408471823,-0.01356134931242529,0.16786806522475128,0.10473222421634083,0.01928162236737269,-0.06825703797197358,0.8153350630493442,0.6977020229806354,226310397488.32135,0.0,4536719464227.25,0.5890659727827013,0.4059161601110973,0.5415688884432702,-0.441516126251978,0.01928162236737269,-0.06825703797197358,0.8153350630493442
7.4,-91.4133483608835,33.86417138579316,269.5956872086481,286.679292805912,0,9.04453269534277,201.31039699503822,11.032601078197837,18.98652290695494,0.001927518529143411,-0.00682560427019751,0.034748385275804566,0.11542830974902954,-0.010184694396642054,0.03367872521113888,-0.665598399744733,0.7115899527277215,226310397488.32135,0.0,4536719464227.25,0.6176781265790703,0.38163961968366583,0.5043383208713424,-0.4674053815844996,-0.010184694396642054,0.03367872521113888,-0.665598399744733
7.5,-91.41297367771446,33.86279729911988,269.6140205330471,286.6962519209453,0,9.05941772537714,201.57414923718915,11.032596494866738,18.987134017768238,0.0037468316904210176,-0.013740866732803218,0.18333324399009207,0.10910052721535915,0.01819313161277613,-0.06915262462605733,1.4858485871428804,0.7844899919730827,28475908241282.055,0.0,33366374957.795624,0.5832885874279091,0.41226491927997333,0.5397323331411847,-0.4455345875119064,0.01819313161277613,-0.06915262462605733,1.4858485871428804
7.71,-91.41260989334401,33.86141429692841,269.63554188263794,286.7162117356546,0,9.09006102104583,202.1248939586155,11.03259111452934,18.987851396087933,0.0017323065259504458,-0.0065857247213059415,0.1024826170992453,0.09836846442813676,-0.009592976973669391,0.0340721048166537,-0.3850029851945085,0.6833798494052957,1449735750118.145,0.0,-4099130599989.175,0.5782633834161411,0.41718649491978615,0.5411142396426949,-0.4458276208497724,-0.009592976973669391,0.0340721048166537,-0.3850029851945085
7.8,-91.41225703579389,33.86002239971662,269.6402773363248,286.7203882100077,0,9.10296161176407,202.35960620296817,11.03258993066592,18.98800924454416,0.003920639445848596,-0.015465524575435893,0.052616152076249596,0.10022128321354806,0.024314810221090596,-0.09866444282366628,-0.554071833588842,0.6811158383748982,-3.8321438074710015,0.0,-0.5262044196044002,0.6338817633668574,0.3658521513750464,0.470171693742073,-0.49323898042316544,0.024314810221090596,-0.09866444282366628,-0.554071833588842
8.0,-91.4119150528455,33.85862161817854,269.6631922740874,286.7416637654233,0,9.13134410453992,202.87829479190856,11.032584201931478,18.988773075802914,0.001709914741923056,-0.007003907690403815,0.11457468881303602,0.08887830562276151,-0.01105362351962769,0.04230808442516035,0.30979268368393187,0.47241505929752625,-3.8321438074710015,0.0,-0.5262044196044002,0.5733382157862409,0.4227653841356284,0.5383948623153193,-0.4502040565434444,-0.01105362351962769,0.04230808442516035,0.30979268368393187
8.11,-91.41158402203976,33.85721202320367,269.667894577001,286.74581403221066,0,9.146631566859252,203.16184574156526,11.03258302635575,18.988929819233366,0.0030093709612670524,-0.012814499771513515,0.04274820830532526,0.07728878093108925,0.011813238357672754,-0.05282356437372481,-0.6529680046155557,0.548509198635032,-3.8321438074710015,0.0,-0.5262044196044002,0.6305133027412754,0.3689079450121008,0.4655788653701814,-0.49959606012643054,0.011813238357672754,-0.05282356437372481,-0.6529680046155557
8.3,-91.41126386067704,33.855793625876316,269.6920132272551,286.7682268334729,0,9.172782874492476,203.64867307169013,11.032576996693185,18.989733774241838,0.0016850598038032265,-0.007465249091347565,0.12694026449516405,0.09300093701727025,-0.006970058723493774,0.02815395094824165,0.4431160852096748,0.5313652079446511,-3.8321438074710015,0.0,-0.5262044196044002,0.5686850841681792,0.42804492892743423,0.5354323728826295,-0.4546284064303676,-0.006970058723493774,0.02815395094824165,0.4431160852096748
8.41,-91.4109546758168,33.854366457474875,269.69671540817285,286.77238197730657,0,9.187587574809584,203.92879124602558,11.032575821147956,18.98989051360576,0.0028107714567485575,-0.012974258194925044,0.04274709925249993,0.11690055925923395,0.010233742299503062,-0.0500819009416137,-0.7653924112969506,0.6703139373504189,-3.8321438074710015,0.0,-0.5262044196044002,0.626718836876522,0.3723184869525947,0.4616153586658926,-0.5054836341774375,0.010233742299503062,-0.0500819009416137,-0.7653924112969506
8.6,-91.41065634427763,33.85293053947118,269.72204610423046,286.7959399190555,0,9.212905586832859,204.40959219755445,11.032569488473943,18.990734870141015,0.0015701659956328937,-0.00755746317733349,0.13331945293478084,0.11509635776328339,-0.006529502426924563,0.028509447461008253,0.47669659832779554,0.7383100807538251,-3.8321438074710015,0.0,-0.5262044196044002,0.5641316414843435,0.43316784448155954,0.5324146026659821,-0.4589725486904461,-0.006529502426924563,0.028509447461008253,0.47669659832779554
8.7,-91.410368972637,33.85148591352978,269.74542970107586,286.8176694328395,0,9.226112171061768,204.6610771556343,11.03256364257473,18.991514323369195,0.002873716406242021,-0.01444625941402938,0.23383596845406002,0.13041894462607134,0.01303550410609132,-0.06888796236695914,1.0051651551927954,0.9304097367104387,268297145132.9843,0.0,-1931008537373.0776,0.5635229264356548,0.4342516370527591,0.5291435002407318,-0.46246576441005977,0.01303550410609132,-0.06888796236695914,1.0051651551927954
8.9,-91.4100926072311,33.85003261150725,269.7524163855476,286.82398066428215,0,9.251667658909124,205.16074781199663,11.032561895903612,18.991747212851585,0.001381827029476305,-0.007266510112628982,0.034933422358562706,0.15207184205716068,-0.0074594468838285405,0.0358987465070018,-0.9945127304774813,0.8334031543867585,6.783231272429224,0.0,-0.17452585208668978,0.5984687428894164,0.4014775093281831,0.48501869117903545,-0.495386558653922,-0.0074594468838285405,0.0358987465070018,-0.9945127304774813
9.02,-91.40982713415481,33.8485706754515,269.77682524569383,286.84667973172134,0,9.266905376620768,205.45840883930293,11.032555793688577,18.992560841523126,0.0022122756358082213,-0.012182800464621914,0.2034071678854364,0.13510792406029962,0.006920405052766014,-0.040969086266608036,1.4039478793906233,0.9511876247052949,2.552242585174399,0.0,0.33488559204488555,0.559080686540249,0.43915462628569263,0.5260825743762544,-0.46670025186109565,0.006920405052766014,-0.040969086266608036,1.4039478793906233
9.2,-91.4095726092614,33.84710011760103,269.8043293707909,286.872292663828,0,9.289246533780641,205.90183946278617,11.032548917657302,18.99347764569303,0.0014140271855941008,-0.008169765835930333,0.15280069498386561,0.1167501716574999,-0.004434713612300676,0.02229463682606438,-0.28114707167539366,0.8459077260426247,-84436479739.334,0.0,-1818880736153.556,0.5554204199969319,0.44286385215831015,0.5260994075794353,-0.4675459109504664,-0.004434713612300676,0.02229463682606438,-0.28114707167539366
9.3,-91.40932909816256,33.84562099038428,269.8089653513622,286.8764007205429,0,9.301329535281177,206.14658222417873,11.03254775866216,18.99363217837874,0.002435110988443477,-0.014791272167471238,0.046359805712653974,0.1194179963350435,0.010210838028493617,-0.06621506331540811,-1.0644088927121014,0.8387823422031563,228531636.44822997,0.0,-15374980642.901953,0.6164592512401769,0.3807456685254716,0.4485537287221638,-0.5232688409497891,0.010210838028493617,-0.06621506331540811,-1.0644088927121014
9.5,-91.40909651622816,33.84413331641887,269.83742767919597,286.90292027509577,0,9.325205286370707,206.63257072314389,11.0325406430802,18.994580922639866,0.0011629096719900686,-0.007438369827070827,0.1423116391688955,0.10701779463132426,-0.006361006582267065,0.036764511702002185,0.4797591672812094,0.6530902665622896,228531636.43341035,0.0,-15374980642.410778,0.5512377881690834,0.4474561217350996,0.5228464522379416,-0.4717536511765841,-0.006361006582267065,0.036764511702002185,0.4797591672812094
9.6,-91.40887495858621,33.84263712851089,269.84209334736454,286.90706134756306,0,9.336804070075642,206.87379486130766,11.032539476663159,18.99473644491215,0.0022155764195019934,-0.014961879079820104,0.04665668168570408,0.08530673482268311,0.010526667475119286,-0.07523509252749304,-0.9565495748319176,0.7776354475624667,-111347466638.69048,0.0,-1784947620768.814,0.6123795012147762,0.3841582803859652,0.4452340793152118,-0.528375223415307,0.010526667475119286,-0.07523509252749304,-0.9565495748319176
9.8,-91.40866435012272,33.84113244965417,269.87040915024176,286.93344855326177,0,9.359698832486359,207.35264931030852,11.032532397712439,18.995680305008058,0.001053042317451508,-0.007523394283595013,0.14157901438608103,0.10365793392749585,-0.005812670510252397,0.03719242398112526,0.4746116635018822,0.662548358962193,-111347466634.12764,0.0,-1784947620769.2935,0.5476369829198781,0.4514502340561559,0.519040098676846,-0.47632320652534355,-0.005812670510252397,0.03719242398112526,0.4746116635018822
9.91,-91.40846476548155,33.839619333029574,269.87505668352196,286.9375776842776,0,9.371899067548618,207.61395197282562,11.032531235829119,18.995835222784066,0.0018144058287816827,-0.013755605678124031,0.042250302547328054,0.12535717458602974,0.006921486466637988,-0.05665646722299137,-0.9029882894432135,0.7873770789826522,-26910986898.63499,0.0,33933115383.94579,0.6090098727200544,0.38666164561514116,0.4410126248013391,-0.5339546904986672,0.006921486466637988,-0.05665646722299137,-0.9029882894432135
10.11,-91.40827612906438,33.838097802004256,269.90311064423724,286.96372408926646,0,9.393757670112091,208.08523338561238,11.03252422233894,18.996770354807907,0.0009431820858907292,-0.007607655126591366,0.14026980357641655,0.12299531118749304,-0.004356118714454783,0.030739752757663434,0.4900975051454442,0.8210652614084996,-250153063967.58496,0.0,-3494383254801.329,0.544132284947323,0.45527692143911885,0.5152068426276484,-0.48083769672580084,-0.004356118714454783,0.030739752757663434,0.4900975051454442
10.21,-91.40809842503057,33.836567890130915,269.92816403077563,286.9870511387035,0,9.404543563826579,208.31900697273568,11.032517958992306,18.997605467692523,0.001777040338026811,-0.015299118733409283,0.25053386538388267,0.1443082367187131,0.0083385825213607,-0.07691463606817808,1.1026406180746455,1.1491517087594825,-250153063972.31592,0.0,-3494383254801.344,0.5440169687540997,0.45561536639883804,0.511599692508515,-0.48448522189437976,0.0083385825213607,-0.07691463606817808,1.1026406180746455
10.4,-91.40793180729706,33.83502963114707,269.93506794289914,286.99331025786233,0,9.42415913391567,208.75970075385504,11.032516233014276,18.997835598096636,0.0008769354395392287,-0.008096099914960079,0.0363363795973951,0.1613136873170462,-0.004737394202566235,0.03791062536025907,-1.1273551883499375,1.0870442422599509,30091548340031.555,0.0,-30730611930.71914,0.580931117676483,0.4174851631577612,0.46514728873349137,-0.5214050007836248,-0.004737394202566235,0.03791062536025907,-1.1273551883499375
10.5,-91.40777613953836,33.833483058974316,269.959853981761,287.01639130288635,0,9.434444991005645,208.9897959256961,11.03251003650456,18.998661799392032,0.001556677587046812,-0.015465721727565607,0.24786038861862014,0.14286873648330384,0.006797421475075857,-0.07369621812605553,2.1152400902122577,1.1568268887788151,30091548340031.555,0.0,-30730611930.71914,0.5406026178962965,0.4592198638636356,0.5077622488363545,-0.48892067333401146,0.006797421475075857,-0.07369621812605553,2.1152400902122577
10.7,-91.40763148518627,33.83192821771756,269.9857063499236,287.04047814537864,0,9.4542580720486,209.4461108084199,11.03250357341252,18.999523544997455,0.0007232717604210874,-0.007774206283777146,0.1292618408129447,0.11828962693517242,-0.004167029133128638,0.03845757721894244,-0.5929927390283793,1.018362131367708,30091548340031.555,0.0,-30730611930.71914,0.5381711882907905,0.4616972845175863,0.5066450006261075,-0.4904265825822831,-0.004167029133128638,0.03845757721894244,-0.5929927390283793
10.8,-91.40749787743013,33.83036512166427,269.99026965137546,287.0445435448999,0,9.46381831028365,209.6723102387163,11.032502432587156,18.99967565504585,0.001336077561404617,-0.01563096053288837,0.045633014518670544,0.12032713585096877,0.0061280580098352095,-0.07856754249111114,-0.8362882629427296,0.9598503765755447,30091548340031.555,0.0,-30730611930.71914,0.5995756040079493,0.39287810461104555,0.42789250622041736,-0.5505123914283356,0.0061280580098352095,-0.07856754249111114,-0.8362882629427296
11.0,-91.40737524921641,33.82879381528376,270.0158433915489,287.06837377774224,0,9.48257315403836,210.120742811271,11.032496039152113,19.00052811305163,0.0006131410685839022,-0.007856531902561442,0.1278687008672823,0.09364331572430422,-0.003614682464103587,0.038872143151634786,0.41117843174306024,0.6036484318498345,30091548340031.555,0.0,-30730611930.71914,0.53481396941803,0.46515268416699845,0.5028686008306685,-0.4947021010933477,-0.003614682464103587,0.038872143151634786,0.41117843174306024
11.1,-91.4072636632489,33.82721433322635,270.02031377733726,287.072356963119,0,9.491600509133468,210.34295602326654,11.032494921555665,19.000677125911242,0.0011158596751670341,-0.0157948205740866,0.04470385788351921,0.07642159589649343,0.005027186065831337,-0.07938288671525184,-0.8316484298376339,0.6344261325129648,30091548340031.555,0.0,-30730611930.71914,0.5974690214909175,0.3934401704397705,0.42221622542565607,-0.5567486503174671,0.005027186065831337,-0.07938288671525184,-0.8316484298376339
11.31,-91.40716307198848,33.825626730322696,270.0443962171112,287.09478994372637,0,9.51012075599029,210.80520245661052,11.032488900945722,19.00147987390371,0.0004790060019997437,-0.007560013826927509,0.11467828463791839,0.09441242573832798,-0.003032636538891847,0.039213365462662166,0.33321155597332813,0.5694822232555703,30091548340031.555,0.0,-30730611930.71914,0.532286051509182,0.4677130479007998,0.4982854528011939,-0.4996275329871422,-0.003032636538891847,0.039213365462662166,0.33321155597332813
11.41,-91.40707352765318,33.82403101158295,270.0484300207368,287.0983676746127,0,9.518585572674432,211.0232032194721,11.032487892494816,19.00161433402456,0.0008954433529595494,-0.01595718739743296,0.04033803625588931,0.11503239937986845,0.004164373509598072,-0.08397173570505478,-0.7434024838202934,0.672907752575075,30091548340031.555,0.0,-30730611930.71914,0.6010439278638109,0.3860893932067781,0.40836234660005727,-0.5682617100514151,0.004164373509598072,-0.08397173570505478,-0.7434024838202934
11.6,-91.40699492221805,33.822427212196025,270.0746404995911,287.1228077743356,0,9.534352622539444,211.43359810560466,11.032481339875101,19.00248801665304,0.0004137128165008405,-0.00844104940488193,0.1379498887068194,0.1118313822073129,-0.0025354238760984743,0.039558621013426574,0.5137465918470019,0.6966447131767917,30091548340031.555,0.0,-30730611930.71914,0.5275165161972778,0.47246483796743005,0.496188422155471,-0.5022950843302784,-0.0025354238760984743,0.039558621013426574,0.5137465918470019
11.7,-91.40692735741517,33.82081537752879,270.0977052665796,287.14429179768973,0,9.542478248138067,211.64757386401845,11.032475573683355,19.003256842219322,0.0006756480287606361,-0.01611834667237139,0.23064766988511648,0.1376892864409963,0.002619352122597965,-0.07677297267489488,0.9269778117829741,1.103632050895165,30091548340031.555,0.0,-30730611930.71914,0.5278677072955418,0.47203473339943036,0.49223598863918605,-0.5062041342654958,0.002619352122597965,-0.07677297267489488,0.9269778117829741
11.91,-91.40687088473359,33.81919554312533,270.10410133615255,287.15009940923414,0,9.558521339111604,212.09233335092716,11.032473974665962,19.003470044538417,0.0002689175313245555,-0.007713497159315998,0.030457474156805893,0.15458183963689426,-0.0019368118925527566,0.04002309291931123,-0.9532866463252847,1.070383651787979,30091548340031.555,0.0,-30730611930.71914,0.5676805724560738,0.42663584341642347,0.44176895042868775,-0.5482342740156226,-0.0019368118925527566,0.04002309291931123,-0.9532866463252847
12.0,-91.40682535541934,33.817567744706125,270.12602052432106,287.1705113238994,0,9.565338377177664,212.28102409047852,11.032468494868919,19.004200684144035,0.0005058812694376995,-0.018086649102302673,0.2435465352056734,0.13127709902662096,0.0026329304234793817,-0.11525724381096324,2.3676562338763096,1.0748516782485282,-73117468728929.16,0.0,-1538253894567.7627,0.5253853022808777,0.4743479755435425,0.48780093614431846,-0.510895810260468,0.0026329304234793817,-0.11525724381096324,2.3676562338763096
12.2,-91.40679088047528,33.815932018167274,270.1515384486735,287.1943112311059,0,9.57971409712487,212.696166348446,11.032462115387832,19.00505128162245,0.00017237472029307872,-0.008178632694253481,0.12758962176207023,0.1373958620658171,-0.0016675327457231096,0.04954008204024614,-0.579784567218018,1.3715392252427538,-73117468728929.16,0.0,-1538253894567.7627,0.5211534629935382,0.4786159089764068,0.48880961713284526,-0.5102852514848649,-0.0016675327457231096,0.04954008204024614,-0.579784567218018
12.4,-91.40676747066124,33.81428839957972,270.1555518283917,287.1978854781287,0,9.593123517182995,213.10549604073105,11.032461112042903,19.00518506094639,0.00011704907024068172,-0.008218092937752842,0.020066898591153296,0.14000455379431664,-0.00027662825026198356,-0.00019730121749680465,-0.5376136158545818,1.6207776548419701,-73117468728929.16,0.0,-1538253894567.7627,0.5913240985828441,0.3911964753117791,0.3968079050902736,-0.5829619323735437,-0.00027662825026198356,-0.00019730121749680465,-0.5376136158545818
12.5,-91.40675500649388,33.812636925188436,270.18168018426684,287.22226512553874,0,9.599786040553841,213.30795839382168,11.032454579953933,19.00605600614223,0.00012464167355119614,-0.01651474391287883,0.26128355875130277,0.11670943657448826,7.592603310514453e-05,-0.08296650975126017,2.4121666016015033,1.2332982606305494,-73117468728929.16,0.0,-1538253894567.7627,0.5174710838933356,0.4821428422222365,0.48579544898239213,-0.5135803138518025,7.592603310514453e-05,-0.08296650975126017,2.4121666016015033
12.6,-91.40675363824673,33.81097763141162,270.1858053387151,287.2259497775314,0,9.606038736568184,213.50894039868865,11.032453548665321,19.006193511290505,1.3682471546872015e-05,-0.016592937768180663,0.04125154448274785,0.10006817577775431,-0.0011095920200432452,-0.0007819385530183382,-2.200320142685557,1.289910078816141,-73117468728929.16,0.0,-1538253894567.7627,0.5861553398892659,0.3956965742276329,0.3960229986028174,-0.5856721977706024,-0.0011095920200432452,-0.0007819385530183382,-2.200320142685557
12.8,-91.40676323595018,33.80931053483992,270.2112993157935,287.2497382453875,0,9.618144713736385,213.90642769994,11.03244717517105,19.00704331052645,-4.798851726661698e-05,-0.008335482858470255,0.12746988539191695,0.1216551913401394,-0.00030835494406744336,0.04128727454855182,0.4310917045458432,1.270743668051955,-73117468728929.16,0.0,-1538253894567.7627,0.5145679706411904,0.48480095920663785,0.4820179278452347,-0.517538936485282,-0.00030835494406744336,0.04128727454855182,0.4310917045458432
12.9,-91.4067839193915,33.807635712235594,270.2154377412153,287.2534406627954,0,9.623824505824299,214.10291533028746,11.032446140564696,19.00718125804051,-0.00020683441320557068,-0.016748226043290574,0.04138425421786011,0.11721027380985989,-0.0015884589593895425,-0.0841274318482035,-0.8608563117405715,1.0079552133942813,-73117468728929.16,0.0,-1538253894567.7627,0.5827063706075952,0.3976642638121045,0.3927835802585747,-0.5899470128912907,-0.0015884589593895425,-0.0841274318482035,-0.8608563117405715
13.1,-91.40681557811479,33.80595318053173,270.2413070423655,287.2775877727705,0,9.634782973649124,214.491334887058,11.032439673239407,19.00804356807885,-0.00015829361643682262,-0.008412658519318968,0.12934650575118714,0.11485068974389286,0.00024270398384374116,0.04167783761985818,0.43981125766663676,0.7755025399978536,-73117468728929.16,0.0,-1538253894567.7627,0.511096861717941,0.48802601465753476,0.47892964149871886,-0.5208041910866925,0.00024270398384374116,0.04167783761985818,0.43981125766663676
13.2,-91.40685824142102,33.804262966831395,270.265205348316,287.2998836586352,0,9.64008225371969,214.6832495504536,11.03243369866292,19.0088401782772,-0.00042663306231816175,-0.016902137003356247,0.23898305950467688,0.1336625762408553,-0.002683394458813401,-0.08489478484037309,1.0963655375349013,1.0340641431446111,-73117468728929.16,0.0,-1538253894567.7627,0.5107732625951583,0.48807816859229664,0.47591386691181203,-0.5238285662719562,-0.002683394458813401,-0.08489478484037309,1.0963655375349013
13.4,-91.40691201836808,33.80256512840687,270.2715137898406,287.3056354133101,0,9.649684221289045,215.06244600009956,11.032432121552539,19.009050459661353,-0.00026888473527719584,-0.008489192122631505,0.03154220762297638,0.15245739775866685,0.0007887416352048253,0.04206472440362349,-1.037204259408497,0.9486372092203135,-73117468728929.16,0.0,-1538253894567.7627,0.5522956078321265,0.4368682411850711,0.4232500603989257,-0.5700658626733495,0.0007887416352048253,0.04206472440362349,-1.037204259408497
13.51,-91.40697670777074,33.80085970269876,270.2958521994301,287.3283508874692,0,9.654842275225526,215.26835139763472,11.032426036950142,19.009861739981005,-0.0005880854787547367,-0.015503870073726828,0.2212582689956198,0.1354126392465726,-0.0029018249407049322,-0.06376979955541236,1.7246914670240399,1.0557860776391084,22301145073257.383,0.0,1446700715777.0479,0.507295359057235,0.4912491393352464,0.472968586747659,-0.5269026643805218,-0.0029018249407049322,-0.06376979955541236,1.7246914670240399
13.7,-91.40705246820067,33.79914670731524,270.32213401130696,287.35289748929625,0,9.663037462910298,215.61953260223407,11.032419466497172,19.010737800376898,-0.0003987391049295912,-0.00901576517642569,0.13832532566766567,0.11407599585994706,0.0009965598622376105,0.03414792051211134,-0.436489175410286,0.927953500812883,-655990867591.3445,0.0,-1375462163712.9272,0.5044906091593055,0.4940151554858447,0.4726493245773461,-0.527295806352514,0.0009965598622376105,0.03414792051211134,-0.436489175410286
13.8,-91.40713928798662,33.79742619003115,270.32622576143996,287.356571987329,0,9.666969318359119,215.80207290163648,11.03241844355964,19.010874192047996,-0.0008681978594893157,-0.017205172840845974,0.04091750132999947,0.11638312683053838,-0.004694587545597178,-0.08189407664420167,-0.9740782433766482,0.9051252022868803,-677796694003.7433,0.0,-12848975451.85664,0.5740378875055668,0.4008773401181892,0.38115855479096916,-0.603735056127745,-0.004694587545597178,-0.08189407664420167,-0.9740782433766482
14.0,-91.40723705521421,33.79569819878725,270.35274878755854,287.3813511343427,0,9.674426947852506,216.16237186624852,11.03241181280311,19.011758292918618,-0.0004888361379329371,-0.008639956219518328,0.13261513059291066,0.09893138049836911,0.0018968086077818997,0.04282608310663838,0.4584881463145576,0.6539714062929891,-677796694005.689,0.0,-12848975451.362898,0.5012359234650228,0.49691387320252695,0.46959391792326954,-0.5303967419738759,0.0018968086077818997,0.04282608310663838,0.4584881463145576
14.1,-91.40734589772617,33.79396275168931,270.35681252916726,287.38500462525946,0,9.677768327319374,216.34011451823014,11.032410796867708,19.01189375097224,-0.0010884251196330336,-0.017354470979427168,0.040637416087179336,0.07918334007546034,-0.005995889817000987,-0.08714514759908872,-0.9197771450573166,0.7445471262944393,-677796693998.2312,0.0,-12848975451.349848,0.5714402287507427,0.4014273879292834,0.3770396800082934,-0.6084021670612416,-0.005995889817000987,-0.08714514759908872,-0.9197771450573166
14.3,-91.40746568312233,33.792219877007284,270.38366432756,287.41009871266846,0,9.684045763949957,216.69074666367496,11.03240408391811,19.012788810918664,-0.0005989269807571386,-0.00871437341011467,0.13425899196363317,0.09897031661524198,0.0024474906943794616,0.04320048784656226,0.4681078793822667,0.6613483598747498,-677796693991.9597,0.0,-12848975451.834146,0.4979720352168576,0.4997980259467509,0.4666266289057577,-0.5333717039717799,0.0024474906943794616,0.04320048784656226,0.4681078793822667
14.41,-91.40759654875961,33.7904696431745,270.3876846258338,287.4137166922387,0,9.687053398557447,216.88081797993723,11.032403078843542,19.012922820861128,-0.0011896876117134586,-0.01591121666170257,0.03654816612559214,0.12177819336717643,-0.005370551190512027,-0.06542584774170851,-0.8882802348912866,0.7764787786246249,-21805826398.419483,0.0,1362613188261.3264,0.5691450950066325,0.40144454045422545,0.37254897790729413,-0.6132890026974375,-0.005370551190512027,-0.06542584774170851,-0.8882802348912866
14.6,-91.40773834175222,33.788712088786774,270.4148603689029,287.4391212095292,0,9.691885330512319,217.20444565163936,11.032396284907774,19.01382867896343,-0.0007462789084618319,-0.00925028625117291,0.14303022667951718,0.11939392810084899,0.0023337300171138308,0.035057528476471984,0.5604318976522384,0.8071470800333305,-21805826398.419483,0.0,1362613188261.3264,0.49475395724718485,0.5026083769376959,0.46369279276540704,-0.5362763608045046,0.0023337300171138308,0.035057528476471984,0.5604318976522384
14.7,-91.40789113897155,33.786947232601584,270.4394904035122,287.46213374196617,0,9.694243603590284,217.37238167213866,11.032390127399122,19.014649680117074,-0.001527972193287047,-0.01764856185189962,0.2463003460928812,0.1400387216148797,-0.007816932848252179,-0.0839827560072674,1.032701194133644,1.1256461746238506,-21805826398.419483,0.0,1362613188261.3264,0.4947965795712523,0.5020781703573304,0.46048758952190194,-0.5394858993444899,-0.007816932848252179,-0.0839827560072674,1.032701194133644
14.9,-91.40805501704637,33.78517513353721,270.44569627825086,287.4678159659461,0,9.697932466868796,217.70326335739577,11.032388575930437,19.014856542608364,-0.0008193903740760745,-0.008860495321876225,0.031029373693342965,0.15787296231981945,0.0035429090960548437,0.043940332650116744,-1.0763548619976855,1.056226534739455,-21805826398.419483,0.0,1362613188261.3264,0.5380965896977986,0.4447023281129485,0.40547516413403095,-0.5901540398887419,0.0035429090960548437,0.043940332650116744,-1.0763548619976855
15.0,-91.40822982236284,33.783395810671855,270.46940564356566,287.4899680005236,0,9.699684029643766,217.86619431635535,11.032382648589108,19.015646854785523,-0.001748053164760683,-0.01779322865353101,0.23709365314800918,0.13645832141658779,-0.009286627906846118,-0.08932733331654816,2.0606427945466694,1.1393396276131664,-21805826398.419483,0.0,1362613188261.3264,0.4924609584971205,0.5037918439576645,0.456723382997707,-0.543212420459035,-0.009286627906846118,-0.08932733331654816,2.0606427945466694
15.2,-91.40841561106464,33.781609313242825,270.49515315177433,287.5140404413662,0,9.70237181946891,218.1870002605127,11.032376211712055,19.016505105059146,-0.00092894350899542,-0.00893248714515241,0.128737541043336,0.11343755082994131,0.004095548278826329,0.044303707541893146,-0.5417805605233678,1.0325855591645532,-21805826398.419483,0.0,1362613188261.3264,0.489630936307939,0.5066185905205371,0.45666446941244604,-0.5431912299783977,0.004095548278826329,0.044303707541893146,-0.5417805605233678
15.3,-91.408612469053,33.77981569064562,270.49829805707833,287.51685104248673,0,9.703318871113735,218.34486098772135,11.03237542548573,19.016609935235945,-0.001968579883566662,-0.017936225972050326,0.03144905303997758,0.11399619902531943,-0.010396363745712272,-0.09003738826897788,-0.9728848800335704,1.0210465178114914,-21805826398.419483,0.0,1362613188261.3264,0.5775516455755073,0.37321186385446853,0.33449134799019614,-0.6444086742828643,-0.010396363745712272,-0.09003738826897788,-0.9728848800335704
15.5,-91.40882026198682,33.77801496243308,270.5246022155759,287.5414528731225,0,9.704813550534473,218.65546287267864,11.032368849446106,19.017486740519196,-0.0010389646691066937,-0.00900364106268373,0.13152079248783413,0.09250146540859704,0.004648076072299857,0.04466292454683314,0.5003586972392845,0.7089326489740072,-21805826398.419483,0.0,1362613188261.3264,0.48637307676770936,0.5094121750302306,0.4540095341143812,-0.5457250306333071,0.004648076072299857,0.04466292454683314,0.5003586972392845
15.6,-91.40903909528276,33.77620718831455,270.5275997852747,287.544130258179,0,9.705159438312679,218.80819022595023,11.03236810005368,19.017586659509156,-0.0021883329594629764,-0.01807774118532286,0.029975696987776353,0.07293074734108736,-0.011493682903562867,-0.09074100122639162,-1.0154509550005812,0.7891209058370323,-21805826398.419483,0.0,1362613188261.3264,0.5780620807761697,0.36694367462331856,0.32520339764287126,-0.6522570969979504,-0.011493682903562867,-0.09074100122639162,-1.0154509550005812
15.8,-91.40926880411534,33.77439236815493,270.55359412610414,287.56844628313064,0,9.705451234258522,219.1084638150948,11.032361601468473,19.018453137536806,-0.0011485441628877819,-0.009074100798116498,0.12997170414735068,0.09369956333958773,0.005198943982875945,0.045018201936031566,0.499980035797869,0.7133148103050682,-21805826398.419483,0.0,1362613188261.3264,0.4836869677879333,0.5115069679922194,0.4508446776376876,-0.5487682712523483,0.005198943982875945,0.045018201936031566,0.499980035797869
15.91,-91.40950958341706,33.772570601973854,270.5564922999282,287.5710355598895,0,9.70515674847293,219.2706541433393,11.032360876925017,19.01854974333094,-0.0021889027429076485,-0.016561510737034355,0.026347034764223252,0.11371287434738327,-0.009457805272907929,-0.06806736308107178,-0.9420424489375269,0.7797489382435125,-21805826398.419483,0.0,1362613188261.3264,0.5775585784064762,0.36241403939025585,0.31766617075422826,-0.6589160466404457,-0.009457805272907929,-0.06806736308107178,-0.9420424489375269
16.1,-91.40976123787848,33.770741879944794,270.5830475705572,287.59588503533604,0,9.704293744548353,219.54582189342418,11.032354238107361,19.019434919018572,-0.001324497165380993,-0.009624852784527614,0.13976458225783878,0.11135372285115272,0.004549503039613946,0.036508726065824705,0.5969344604927093,0.7971961844349933,-21805826398.419483,0.0,1362613188261.3264,0.48051148535078386,0.5141807119224328,0.44826888991883024,-0.5511641409452026,0.004549503039613946,0.036508726065824705,0.5969344604927093
16.21,-91.41002382194837,33.768906262394175,270.60848900375976,287.61968953148096,0,9.703565010561551,219.70223234012272,11.032347877749059,19.02028296679199,-0.002387127908062596,-0.016687432278349644,0.23128575638690105,0.13663358757187108,-0.009660279478923716,-0.06420526812565515,0.8320106739005704,1.1669223105336972,-21805826398.419483,0.0,1362613188261.3264,0.47978918340882815,0.5144467246518503,0.44609234990261465,-0.5533068970627751,-0.009660279478923716,-0.06420526812565515,0.8320106739005704
16.4,-91.41029747983382,33.76706380980047,270.6125003672751,287.62333430845854,0,9.701337766311099,219.96736217026677,11.03234687490818,19.02041667890917,-0.0014403046602308994,-0.009697118914244388,0.021112439554527854,0.15605077246683066,0.004983280251745832,0.03679112296897547,-1.1061753517493458,1.1003093621014703,-21805826398.419483,0.0,1362613188261.3264,0.5505370918335857,0.40739570197318287,0.3513548159168554,-0.6383474335040663,0.004983280251745832,0.03679112296897547,-1.1061753517493458
16.5,-91.41058197550036,33.765214502793334,270.63810133082444,287.64729461525087,0,9.700111070216082,220.1043312027646,11.032340474667294,19.021270044360815,-0.0028449566654841925,-0.018493070071343445,0.25600963549322475,0.1352159375461555,-0.014046520052532731,-0.08795951157098933,2.348971959386936,1.2018753594243858,-21805826398.419483,0.0,1362613188261.3264,0.4769061045104613,0.5167388132085214,0.4433231283011044,-0.5558832344277241,-0.014046520052532731,-0.08795951157098933,2.348971959386936
16.71,-91.41087740267211,33.76335843215267,270.6649750661221,287.67245542055093,0,9.69661737315813,220.3861572640814,11.032333756233468,19.022165835537404,-0.0014067960559519318,-0.008838431622205567,0.12797016808414238,0.11427940131170607,0.0068483838549155,0.04597446880541828,-0.6097117495670564,1.1287335217907677,-21805826398.419483,0.0,1362613188261.3264,0.47476562996777166,0.5187623842033333,0.4427221642414994,-0.5563095097392284,0.0068483838549155,0.04597446880541828,-0.6097117495670564
16.8,-91.4111838848319,33.761495648807774,270.66760024688773,287.6748041644941,0,9.69476240686503,220.5045198979427,11.032333099938278,19.022253341562923,-0.003405357330955723,-0.02069759272108251,0.029168675173549617,0.11609942038336951,-0.022206236388931044,-0.13176845665418846,-1.0977943656732545,1.1097931229401665,-21805826398.419483,0.0,1362613188261.3264,0.575913517408285,0.34775248389582514,0.2952124365324016,-0.678410972587637,-0.022206236388931044,-0.13176845665418846,-1.0977943656732545
17.01,-91.41150118522143,33.7596261538364,270.69424834885643,287.6997584221004,0,9.690013423783132,220.775021494724,11.032326437912786,19.023141611628546,-0.0015109542358361786,-0.008902357006539689,0.1268957236604923,0.09300940553796697,0.00902096711961684,0.05616778911687035,0.46536689755686794,0.7607672536833451,-21805826398.419483,0.0,1362613188261.3264,0.47216774898559155,0.5206909886075345,0.4397630445831261,-0.5590590092465796,0.00902096711961684,0.05616778911687035,0.46536689755686794
17.11,-91.41182951684141,33.757750038463875,270.6968666497905,287.70210613982294,0,9.687343775459846,220.90102607307088,11.032325783337551,19.02322888832635,-0.003283316199826983,-0.018761153725251178,0.02618300934045748,0.07298402101845487,-0.017723619639908424,-0.09858796718711699,-1.0071271432003697,0.8548912098860189,-21805826398.419483,0.0,1362613188261.3264,0.5732498157071935,0.3473919749075798,0.2918759523287877,-0.6822843197770585,-0.017723619639908424,-0.09858796718711699,-1.0071271432003697
17.3,-91.4121686324517,33.75586728406218,270.7236344294899,287.7271787455942,0,9.681944023696332,221.13542212361364,11.032319091392628,19.024121147649666,-0.0017848190015151287,-0.009909233693150488,0.14088305104953658,0.09418535666859704,0.007886827359536023,0.04658905280052963,0.6036844300477807,0.7597241031780176,-21805826398.419483,0.0,1362613188261.3264,0.4694107288308873,0.5228147701232515,0.43705997288070914,-0.5615130131216378,0.007886827359536023,0.04658905280052963,0.6036844300477807
17.41,-91.41251879457151,33.75397799214901,270.7260634698026,287.7293538457937,0,9.67836121181027,221.26811091169353,11.03231848413255,19.02420211566009,-0.0031832919983220396,-0.01717538102878092,0.02208218466121677,0.11971430127160276,-0.012713390880062892,-0.06605588486936789,-1.0800078762574583,0.89181832450698,-21805826398.419483,0.0,1362613188261.3264,0.5755658106683852,0.33495384359471664,0.2785777998142979,-0.6920435894518462,-0.012713390880062892,-0.06605588486936789,-1.0800078762574583
17.6,-91.41287970547953,33.75208214438692,270.75296185463577,287.7545550954629,0,9.671838252821594,221.49206935496062,11.032311759536341,19.02509872848786,-0.0018995310948130872,-0.00997814611627745,0.14157044649024053,0.11783287337774269,0.006756636334257599,0.037880183750018004,0.628885588573805,0.9229155238787519,-21805826398.419483,0.0,1362613188261.3264,0.4666824059900158,0.5248961316543839,0.434398686153514,-0.5639054569533218,0.006756636334257599,0.037880183750018004,0.628885588573805
17.7,-91.41325149721408,33.75017981258236,270.778374169965,287.77836107811186,0,9.66823268727574,221.6072705583609,11.032305406457509,19.0259458056655,-0.0037179173455116027,-0.019023318045583843,0.2541231532922038,0.1339438730937799,-0.018183862506985542,-0.09045171929306586,1.1255270680196567,1.1662442774015709,-21805826398.419483,0.0,1362613188261.3264,0.46627646676862905,0.5246830046856714,0.43206565725105617,-0.5662272237856388,-0.018183862506985542,-0.09045171929306586,1.1255270680196567
17.9,-91.41363434157338,33.74827106868477,270.7825354038452,287.7821742627486,0,9.6599671980035,221.83212031178587,11.032304366149038,19.026084513461505,-0.001914221796539557,-0.009543719487936676,0.02080616940105536,0.15567242002813034,0.00901847774486026,0.047397992788236004,-1.1665849194557463,1.0393005981186714,16.123441264100045,0.0,-0.18960032662312756,0.5347338331030751,0.41520206389746406,0.3401927573220909,-0.6526376190013659,0.00901847774486026,0.047397992788236004,-1.1665849194557463
18.01,-91.41402786011565,33.74635587478566,270.80685464642,287.80495747628277,0,9.655308430259389,221.95262027996372,11.032298286338394,19.026895154880666,-0.0035774412933422374,-0.01741085362832465,0.22108402340718197,0.13447775657520716,-0.015120177243660321,-0.07151940127625236,1.8207077636920106,1.1267875766128348,4.936801090708508,0.0,0.19625372845738412,0.46441961498473555,0.5255946733555443,0.42858000161336707,-0.5695470505364721,-0.015120177243660321,-0.07151940127625236,1.8207077636920106
18.2,-91.41443226415923,33.74443433311763,270.83277208993167,287.8292474932968,0,9.64654597866023,222.15543897824057,11.032291806977517,19.02775906966439,-0.002128442334624581,-0.01011337720013372,0.1364075974298614,0.10882061694064368,0.007626310309040389,0.03840777067468956,-0.44566539988063997,0.9975435881457685,4.936801090708508,0.0,0.19625372845738412,0.46207222474507187,0.5279297132833315,0.4283876404371592,-0.5694413986288689,0.007626310309040389,0.03840777067468956,-0.44566539988063997
18.3,-91.41484767478298,33.74250650605352,270.8357792287307,287.83198298859804,0,9.641546575953903,222.25947103435806,11.032291055192816,19.027859307624357,-0.0041541062374505465,-0.019278270641080734,0.030071387990346494,0.11134196017134108,-0.020256639028259367,-0.09164893440946884,-1.0633620943951338,0.9584348752423765,4.936801090708508,0.0,0.19625372845738412,0.5527723434398226,0.36970841957538014,0.29852897749009527,-0.6845720345017314,-0.020256639028259367,-0.09164893440946884,-1.0633620943951338
18.5,-91.41527377282627,33.74057236610544,270.8610167592846,287.8556389970963,0,9.631160573543445,222.46189603116898,11.032284745810179,19.02870055864282,-0.002130490216458732,-0.009670699740418377,0.12618765276954536,0.09371342326082048,0.010118080104959107,0.04803785450331195,0.48058132389599606,0.6982541835041868,4.936801090708508,0.0,0.19625372845738412,0.4599614863501412,0.5291687362130866,0.42528006171295085,-0.5723222420967427,0.010118080104959107,0.04803785450331195,0.48058132389599606
18.6,-91.41571086888926,33.73863203592381,270.86396658018765,287.8583260509809,0,9.625582231959704,222.56027997522926,11.032284008354953,19.028798886006257,-0.004370960629955727,-0.01940330181632505,0.029498209030407032,0.07761264389464771,-0.022404704134969627,-0.09732602075906535,-0.9668944373913695,0.7713920280732249,4.936801090708508,0.0,0.19625372845738412,0.5514599386988843,0.36669157561032123,0.29327631151735806,-0.6895057864074937,-0.022404704134969627,-0.09732602075906535,-0.9668944373913695
18.8,-91.41615860333319,33.736685478296444,270.8906227921698,287.8833227500004,0,9.614058616464888,222.75136889183602,11.032277344301956,19.02968742640566,-0.002238672219618828,-0.009732788136815919,0.13328105991064423,0.1131452457298949,0.01066144205168453,0.04835256839754583,0.5189142544011879,0.7189890590136685,4.936801090708508,0.0,0.19625372845738412,0.45656655485017955,0.5321392165877248,0.42363534785535323,-0.5735049495942597,0.01066144205168453,0.04835256839754583,0.5189142544011879
18.9,-91.41661734628042,33.73473284614761,270.89588279810465,287.888189136341,0,9.607930057710307,222.8440653715732,11.032276029300473,19.029862759936822,-0.004587429472309266,-0.019526321488357173,0.05260005934872082,0.17462966427238355,-0.02348757252690488,-0.09793533351541463,-0.8068100056192513,1.0631200578142637,4.936801090708508,0.0,0.19625372845738412,0.5113963255677982,0.4446672823584974,0.3523059146707684,-0.64546521880242,-0.02348757252690488,-0.09793533351541463,-0.8068100056192513
19.1,-91.41708678761478,33.73277409253705,270.9385601030191,287.92826737819564,0,9.595425463610212,223.02374177495693,11.032265359974245,19.031285336767304,-0.0023472066717999617,-0.009793768052794721,0.2133865245721692,0.24261841462848524,0.011201114002546362,0.04866276717781157,0.8039323261172304,0.9277207529925342,4.936801090708508,0.0,0.19625372845738412,0.44807733480945106,0.5419713304585745,0.4274283962558111,-0.568153804057675,0.011201114002546362,0.04866276717781157,0.8039323261172304
19.2,-91.41756700698177,33.73080926065908,270.981912714101,287.9689845609204,0,9.589110074511659,223.11071371301512,11.032254521821475,19.032730423803365,-0.00480219366991729,-0.019648318779701832,0.4335261108190117,0.2985746441893296,-0.024549869981173804,-0.09854550726907321,2.201395862468472,0.9013066011067089,4.936801090708508,0.0,0.19625372845738412,0.44668818043094427,0.5430811716455802,0.4263333460538354,-0.5690100073899373,-0.024549869981173804,-0.09854550726907321,2.201395862468472
19.4,-91.41805830378875,33.72883862384161,271.05698944070764,288.03955885191874,0,9.575799922451477,223.27890573501014,11.032235752639822,19.03523298135692,-0.002456484034922832,-0.009853184087340629,0.3753836330332674,0.3487479463568775,0.01172854817497233,0.048975673461806195,-0.2907123889287227,0.8451200073442658,4.936801090708508,0.0,0.19625372845738412,0.4411904609162848,0.5496182393166116,0.4294168934654027,-0.5646874355017182,0.01172854817497233,0.048975673461806195,-0.2907123889287227
19.5,-91.41856015720519,33.726861915545186,271.0982826943736,288.0783456557006,0,9.568902256951475,223.36011834377368,11.032225429326406,19.036609423145787,-0.005018534164378181,-0.019767082964250168,0.41293253665969,0.33755022781251043,-0.025620501294553125,-0.09913898876909398,0.3754890362642207,0.9861341004780904,4.936801090708508,0.0,0.19625372845738412,0.4447227726993644,0.5441988178391906,0.423300561053283,-0.5717393961561444,-0.025620501294553125,-0.09913898876909398,0.3754890362642207
19.7,-91.41907304616298,33.724879449362035,271.1596807888186,288.13605622342317,0,9.554338420270977,223.5167587098137,11.032210079802795,19.038656026293953,-0.0025644447889305957,-0.009912330915753421,0.30699047222498277,0.32155452001286144,0.01227044687723797,0.04927376024248391,-0.529710322173538,0.7432319763592247,4.936801090708508,0.0,0.19625372845738412,0.4400335776768228,0.549723586692545,0.4256023308610957,-0.568363514589406,0.01227044687723797,0.04927376024248391,-0.529710322173538
19.8,-91.41959632935648,33.7228908390151,271.1753096399552,288.1506975835529,0,9.54662900696317,223.59217950532195,11.03220617259001,19.03917698799851,-0.005232831935018037,-0.019886103469346213,0.15628851136568533,0.310700487413467,-0.026683871460874035,-0.0997377255359265,-1.507019608592953,0.7539768077362186,4.936801090708508,0.0,0.19625372845738412,0.4590135985554677,0.5222151154132124,0.4025765746285421,-0.5954242110759984,-0.026683871460874035,-0.0997377255359265,-1.507019608592953
20.0,-91.42013061524304,33.720896598357086,271.2460833658961,288.2172390583947,0,9.531055687310324,223.73720556134907,11.032188479158526,19.041536112196535,-0.002671429432794535,-0.009971203290071208,0.3538686297045514,0.311726034702533,0.012807012511117558,0.049574500896375204,0.9879005916943339,0.7745328220973863,4.936801090708508,0.0,0.19625372845738412,0.4366993549664507,0.552739244321038,0.42414597356926087,-0.5690985804447922,0.012807012511117558,0.049574500896375204,0.9879005916943339
20.1,-91.42067562204299,33.71889645136951,271.2781414869612,288.24734857012777,0,9.522962541520014,223.80680437628936,11.03218046462826,19.042604716232038,-0.005450067999532771,-0.02000146987576528,0.32058121065119394,0.33412302704173313,-0.027786385667381966,-0.1003026658569393,-0.33287419053357,0.6890919772785007,4.936801090708508,0.0,0.19625372845738412,0.44290735179212504,0.5434615926342745,0.4151913921426264,-0.5797401857302739,-0.027786385667381966,-0.1003026658569393,-0.33287419053357
20.3,-91.42123134774015,33.716890642161665,271.36182832568534,288.3260517677361,0,9.506429765559973,223.94015811381485,11.032159542918578,19.045394277522846,-0.0027786284857711607,-0.010029046039221648,0.41843419362067075,0.3953514104334618,0.013357197568808099,0.04986211918271834,0.48926491484738577,0.46843147115029804,4.936801090708508,0.0,0.19625372845738412,0.43336613405785296,0.5557648341600661,0.4227219235606226,-0.5697590879520856,0.013357197568808099,0.04986211918271834,0.48926491484738577
20.4,-91.42179779008184,33.714879034969734,271.40369080682416,288.36539591823333,0,9.497894209975001,224.00390710958922,11.032149077298294,19.046789693560804,-0.005664423416931306,-0.02011607191931873,0.4186248113882219,0.4147329976176584,-0.02885794931160207,-0.10087025880097299,0.0019061776755114185,0.2862842473148855,4.936801090708508,0.0,0.19625372845738412,0.43740686815554775,0.549470775446124,0.41611556947741596,-0.57758543217387,-0.02885794931160207,-0.10087025880097299,0.0019061776755114185
20.51,-91.42237460657934,33.712861814155744,271.4546631573614,288.4133176194931,0,9.488348336249008,224.0717720395872,11.032136334210659,19.048488771912044,-0.005243786340904599,-0.01833837103626946,0.4633850048838252,0.4059861248968274,0.0038239734184245078,0.016160917118629315,0.4069108499600193,0.39000763749209266,827311333918.3788,0.0,-475954822136.76416,0.4344226668055484,0.5528323455764976,0.41690927029803015,-0.5760555568601934,0.0038239734184245078,0.016160917118629315,0.4069108499600193
20.7,-91.42296252450814,33.71083902420663,271.54031340651494,288.49388303633395,0,9.471331260063305,224.1834088667562,11.03211492164837,19.051343780217167,-0.0030943048884069326,-0.010646262890084803,0.45079078501873876,0.5303328336552141,0.011313060276303643,0.04048477971676183,-0.06628536771098219,1.8172915295448164,827311333918.3788,0.0,-475954822136.76416,0.4297170863538931,0.558490982804237,0.41927849618834817,-0.5723954843077602,0.011313060276303643,0.04048477971676183,-0.06628536771098219
20.9,-91.42356094090809,33.70881055973323,271.5957763857436,288.5460399226487,0,9.452386930748661,224.29326263823438,11.032101055903563,19.053192546191454,-0.0029920819997642065,-0.010142322366988346,0.27731489614325355,0.5173410985804455,0.0005111144432136326,0.002519702615482291,-0.8673794443774291,3.1693746804409804,827311333918.3788,0.0,-475954822136.76416,0.43138402219739347,0.5554430716990505,0.4152481628218256,-0.5770266742252222,0.0005111144432136326,0.002519702615482291,-0.8673794443774291
21.0,-91.42416993258388,33.70677651546933,271.6997844287526,288.6438956388241,0,9.443416577585273,224.3452378494807,11.032075053892811,19.05665948095842,-0.0060899167579008505,-0.020340442639010515,1.0400804300900142,0.4892896976055862,-0.030978347581366,-0.10198120272022024,7.6276553394674975,3.1199385824164,827311333918.3788,0.0,-475954822136.76416,0.4265372351881093,0.5613724063925776,0.4179186353016698,-0.5729494066727707,-0.030978347581366,-0.10198120272022024,7.6276553394674975
21.1,-91.42478974610516,33.704736996270626,271.7351389714996,288.6771331920274,0,9.433587048984613,224.39524216856668,11.032066215257124,19.057837965716654,-0.006198135212826994,-0.020395191987034586,0.3535454274702892,0.43654791562946205,-0.001082184549261423,-0.0005474934802407036,-6.865350026197152,3.3798093476656463,827311333918.3788,0.0,-475954822136.76416,0.43356453347474083,0.5507013712036134,0.40821109134718725,-0.5849046930641169,-0.001082184549261423,-0.0005474934802407036,-6.865350026197152
21.3,-91.42542022780692,33.7026921271138,271.7998076522006,288.73796833845626,0,9.413353756789146,224.4893293283274,11.03205004808695,19.059993588406687,-0.0031524085088108335,-0.010224345784131153,0.32334340350502205,0.4897792953673232,0.015228633520080859,0.050854231014517345,-0.15101011982633636,3.564077568679326,827311333918.3788,0.0,-475954822136.76416,0.4268168164538735,0.5594241369593415,0.412927230866611,-0.5782414220620217,0.015228633520080859,0.050854231014517345,-0.15101011982633636
21.4,-91.4260613137898,33.70064176309549,271.81840581133497,288.7554392222126,0,9.402844921386642,224.53340798736608,11.032045398547165,19.0606135270445,-0.00641085982877612,-0.020503640183094245,0.18598159134342437,0.33766701464833215,-0.03258451319965356,-0.10279294398963311,-1.3736181216160062,2.3024377543318306,827311333918.3788,0.0,-475954822136.76416,0.4421766914571871,0.5360582189985439,0.3940414350846029,-0.6015419410253549,-0.03258451319965356,-0.10279294398963311,-1.3736181216160062
21.6,-91.42671293992038,33.698586099431274,271.9271190916509,288.85774464532585,0,9.382038112473875,224.61562566862588,11.032018220227087,19.06423730305503,-0.0032581306528811174,-0.01027831832107736,0.5435664015797592,0.609793381393332,0.01576364587947479,0.05112660931008369,1.7879240511816488,3.7997613362574105,-1704764733245.0337,0.0,436400570292.9911,0.4218018613344384,0.5648776726668798,0.413517841030863,-0.5761938908444157,0.01576364587947479,0.05112660931008369,1.7879240511816488
21.8,-91.42737520183144,33.69652505145473,271.9830243381707,288.9103429525806,0,9.360038138624455,224.68991180060564,11.032004243915457,19.066100811272356,-0.0033113095553005795,-0.010305239882733056,0.2795262325989266,0.774613253027048,-0.0002658945120973117,-0.00013460780827847602,-1.3202008449041678,4.799086413532516,1379039809009.36,0.0,887131318941.0232,0.4245406378992856,0.5602201422758678,0.40841920850997243,-0.5823335720019598,-0.0002658945120973117,-0.00013460780827847602,-1.3202008449041678
21.9,-91.42804815492237,33.694458894616396,272.1544924981951,289.0717425425217,0,9.350226709833542,224.72407635352403,11.03196137687545,19.071816416606502,-0.006729530909268676,-0.020661568383318226,1.7146816002440712,1.0431193885352283,-0.03418221353968169,-0.1035632850058539,14.35155367645175,4.905882033650402,2124598623467.8315,0.0,442677529716.9681,0.4180481563435854,0.5685715169198283,0.41278387221333335,-0.5758225802847445,-0.03418221353968169,-0.1035632850058539,14.35155367645175
22.01,-91.42873139435939,33.69238734448278,272.2807118213085,289.1905529564737,0,9.338622115317586,224.75936147849427,11.031929822044672,19.07602372737695,-0.006211267609304656,-0.018832273941946334,1.147448391939871,1.294050997865313,0.00471148454512733,0.016629949467016753,-5.156665530038044,5.085564883198093,1062299311733.9205,0.0,221338764858.16684,0.4179244681545072,0.5680079106765333,0.41076432624739584,-0.5779090072054376,0.00471148454512733,0.016629949467016753,-5.156665530038044
22.21,-91.42942534507601,33.69031059673534,272.58665375938295,289.47860137629004,0,9.317787581159998,224.81734819391818,11.031853336560154,19.086221791979433,-0.00346975358311853,-0.010383738737225237,1.529709690372277,1.6817022806693758,0.013707570130930678,0.04224267602360563,1.9113064921620373,5.263517013377093,0.03703894453389393,0.0,-0.5249291527726221,0.41471724903116464,0.5717302780225325,0.4117597436702318,-0.5758367876759226,0.013707570130930678,0.04224267602360563,1.9113064921620373
22.31,-91.43012982177324,33.68822874716951,272.7664734665825,289.6479146183238,0,9.307399413942523,224.84335436165958,11.031808381633354,19.092215782219416,-0.0070447669722285946,-0.02081849565826177,1.7981970719955982,1.8412064197540765,-0.03575013389110141,-0.10434756921036756,2.684873816233268,2.687477736484689,0.15125959071860678,0.0,-0.5249344866899021,0.4146591352885004,0.5710508787083812,0.4096220101453584,-0.5780730959425933,-0.03575013389110141,-0.10434756921036756,2.684873816233268
22.5,-91.43084470891996,33.68614174169366,273.18788619936754,290.0447839139789,0,9.288025255769519,224.88727439718247,11.031703028450158,19.106262873312254,-0.003762563930147135,-0.010984239346580925,2.217961751500139,2.1099235172099755,0.017274752853060196,0.05175924374568831,2.2092877868659886,1.6980954335979708,0.23071124377780777,0.0,-0.4254410255003925,0.41215314342755915,0.5738306326046213,0.41000121392260913,-0.576842436051084,0.017274752853060196,0.05175924374568831,2.2092877868659886
22.7,-91.43156992075329,33.684049636328105,273.69034931649816,290.5180794495637,0,9.267613398223489,224.92572553980804,11.031577412670876,19.123011643883274,-0.003626059166634845,-0.01046052682777802,2.512315585653093,2.4414945042900356,0.0006825238175614536,0.002618562594014539,1.471769170764777,2.863284798794581,0.0912018909494277,0.0,-0.2236974377080891,0.41092606105114177,0.5748200784359024,0.40911919790424606,-0.5773587547462345,0.0006825238175614536,0.002618562594014539,1.471769170764777
22.81,-91.43230573127892,33.68195264720405,273.9643728790383,290.77623367887423,0,9.256101927167604,224.94346972623535,11.03150890678024,19.132145762634607,-0.006689186596598939,-0.019063537491413065,2.491123295819568,2.6761826901284733,-0.02784661299967373,-0.07820918785122809,-0.19265718030477627,2.5420408981022184,204634224669.3646,0.0,203858325770.2275,0.41058706652197835,0.574522149682185,0.40727069940681826,-0.5792004296736308,-0.02784661299967373,-0.07820918785122809,-0.19265718030477627
22.9,-91.43305199427147,33.67985071056263,274.25124855035875,291.04653008119436,0,9.24717363829193,224.9561900051043,11.03143718786241,19.14170828501196,-0.008291811028331937,-0.023354851571295118,3.187507459116058,2.5361270643210405,-0.01780693813036667,-0.047681267554245114,7.737601814405459,3.554127381058888,409268449338.67316,0.0,407716651540.58185,0.40945044919921086,0.5753691821490143,0.40627931526047434,-0.5798601140578812,-0.01780693813036667,-0.047681267554245114,7.737601814405459
23.1,-91.43380848327483,33.67774379275385,274.84559879614056,291.6066441944278,0,9.226466544080347,224.97866237724656,11.031288600300964,19.161519959871352,-0.0037824450168244,-0.010534589043906657,2.971751228909014,3.2428128793408155,0.022546830057537364,0.0641013126369414,-1.0787811510352043,12.315910457808162,221491038314.21802,0.0,808310425355.0529,0.4076045215993953,0.5772539809104238,0.40607217683400604,-0.5794322934529003,0.022546830057537364,0.0641013126369414,-1.0787811510352043
23.3,-91.43457534160254,33.67563207023558,275.1491332843781,291.8927462448725,0,9.20226010777742,224.99313866120556,11.031212716678905,19.171637776145936,-0.003834291638540335,-0.01055861259136041,1.5176724411875906,3.3011043222933716,-0.0002592331085796746,-0.0001201177372687702,-7.270393938607144,15.53706077523987,221491038314.21802,0.0,808310425355.0529,0.4072901893858719,0.5769328572203011,0.4042867322196866,-0.5812189071604325,-0.0002592331085796746,-0.0001201177372687702,-7.270393938607144
23.4,-91.4353527023382,33.673515579572516,275.7537059853818,292.4627082893836,0,9.19446664599207,224.9973774103485,11.031061573503655,19.191790199512727,-0.00777360735654059,-0.021164906630631204,6.045727010037596,3.1123220423423725,-0.03939315718000339,-0.10606294039271019,45.28054568850102,15.067871760730563,221491038314.21802,0.0,808310425355.0529,0.40548590558843794,0.578738528079371,0.40397647960952326,-0.5809009385497187,-0.03939315718000339,-0.10606294039271019,45.28054568850102
23.6,-91.43614018833568,33.671394227435165,276.31023387178107,292.987501207882,0,9.171923870258162,224.99985518102872,11.030922441532054,19.210341129059366,-0.003937429987459439,-0.010606760686755328,2.7826394319961483,3.0800520268249034,0.01918088684540548,0.052790729719378635,-16.315437890207008,15.985192714217158,221491038314.21802,0.0,808310425355.0529,0.4045482419184169,0.5793386114120314,0.40290672266718774,-0.5816989480113259,0.01918088684540548,0.052790729719378635,-16.315437890207008
23.7,-91.43693843221976,33.66926813059883,276.53459161852595,293.1991024678156,0,9.159901392705136,224.9980940924433,11.030866352095368,19.21781972061753,-0.00798243884077027,-0.021260968363350684,2.2435774674489064,3.3118515108621045,-0.040450088533109184,-0.10654207676595584,-5.390619645472533,14.665238115743872,221491038314.21802,0.0,808310425355.0529,0.4046822653466945,0.5783194636150362,0.400606695158521,-0.584202993754784,-0.040450088533109184,-0.10654207676595584,-5.390619645472533
23.8,-91.43774689638624,33.66713758594255,276.81562460289035,293.464184756857,0,9.148306213142776,224.99433309597197,11.030796093849277,19.22718748676301,-0.008084641664822697,-0.021305446562820105,2.8103298436439728,2.6424094150135895,-0.001022028240524247,-0.00044478199469420086,5.667523761950583,5.658361007739281,221491038314.21802,0.0,808310425355.0529,0.40325306859528226,0.5796107577101101,0.3999965142186086,-0.5843296337070053,-0.001022028240524247,-0.00044478199469420086,5.667523761950583
24.0,-91.43856582300253,33.66500225044805,277.3509620044733,293.96921577113653,0,9.124435981147034,224.98081213686774,11.03066225949888,19.245032066815778,-0.004094633081450653,-0.010676677472503154,2.676687007914618,2.7626810293781987,0.01995004291686029,0.053143845451584945,-0.6682141786467756,3.0808893625076053,221491038314.21802,0.0,808310425355.0529,0.40145388583790065,0.5814377996981117,0.3997425207592406,-0.5839270328773251,0.01995004291686029,0.053143845451584945,-0.6682141786467756
24.1,-91.43939495400797,33.66286255119878,277.6208081052008,294.22383376891935,0,9.11231926788499,224.9710527751641,11.0305947979737,19.254026936840027,-0.008291310054317928,-0.021396992492696804,2.698461007275303,2.8607451841417846,-0.04196676972867216,-0.10720315020193498,0.21773999360684607,3.302902010841783,221491038314.21802,0.0,808310425355.0529,0.40128259802388205,0.5808924415006366,0.39788466604857214,-0.5858532584649925,-0.04196676972867216,-0.10720315020193498,0.21773999360684607
24.3,-91.44023373111416,33.660718195378806,278.29760828932797,294.8625426767356,0,9.089057586037809,224.94553845617358,11.030425597927668,19.2765869429776,-0.004193885530980893,-0.010721779099860423,3.384000920635811,2.9586722215127157,0.020487122616685248,0.053376066964182095,3.427699566802552,2.7356358715358136,221491038314.21802,0.0,808310425355.0529,0.3993380341944183,0.5830175591375043,0.39798174328170866,-0.58500443775884,0.020487122616685248,0.053376066964182095,3.427699566802552
24.4,-91.44108340580551,33.65856954027179,278.57099984343995,295.12060753478164,0,9.07657999510314,224.9297846328522,11.03035725003914,19.285699994781332,-0.008496746913522382,-0.02148655107014054,2.7339155411198717,3.0448162592898274,-0.043028613825415805,-0.10764771970280346,-6.500853795159532,2.9522649258710563,221491038314.21802,0.0,808310425355.0529,0.399251554891885,0.5822751063155055,0.39589155837606443,-0.5872169705383609,-0.043028613825415805,-0.10764771970280346,-6.500853795159532
24.6,-91.44194268933951,33.656416703259964,279.2310072564529,295.74370438194825,0,9.052371332556314,224.8922871593628,11.030192248185886,19.307700241881765,-0.004296417669991054,-0.010764185059137635,3.3000370650648376,3.0941416744028825,0.02100164621765634,0.05361183005501376,2.8306076197247894,3.073995831333212,9137239146.109118,0.0,894247202.0616894,0.3973374014557935,0.5843560801055401,0.3959443768185522,-0.58641198104559,0.02100164621765634,0.05361183005501376,2.8306076197247894
24.71,-91.44281262274727,33.65425932182306,279.57281681961564,296.06647404816664,0,9.03862899354893,224.8682612775204,11.030106795795096,19.319093893987187,-0.007908485525056469,-0.019612558517291268,3.107359665115584,2.748358404009737,-0.032836980500594845,-0.08043975871048799,-1.7516127268114043,3.6784579943900795,6188473500.157793,0.0,388773102420.9746,0.39695213291465903,0.5840860318324447,0.3942598817761415,-0.58807453372391,-0.032836980500594845,-0.08043975871048799,-1.7516127268114043
24.9,-91.4436927268338,33.65209780353728,280.13239722650997,296.5949638850424,0,9.014231019021729,224.82107954624416,11.029966900693372,19.337746574217,-0.004632126771229562,-0.011376412030428993,2.945160036285965,3.413545843929087,0.01724399344119445,0.043348139404538806,-0.8536822569980063,11.187796256322995,161705944452.2703,0.0,-378249025468.6379,0.39543964095286954,0.5855263450575074,0.3937938312674551,-0.5879734756452553,0.01724399344119445,0.043348139404538806,-0.8536822569980063
25.1,-91.44458306217851,33.649931796074235,280.4634097730513,296.9076521459536,0,8.985495933958338,224.76364584287256,11.029884147556738,19.348780325768374,-0.004451676723533574,-0.010830037315230202,1.65506273270663,3.314446035869163,0.0009022502384799281,0.0027318735759939176,-6.450486517896582,13.876949898454734,332109454713.49854,0.0,11715949.388769532,0.39503202179103714,0.5853245842725003,0.39224712640662956,-0.5894803004610516,0.0009022502384799281,0.0027318735759939176,-6.450486517896582
25.2,-91.44548312913571,33.64776192719991,281.0694002574889,297.4801775388321,0,8.975355301623052,224.7319440989134,11.029732649935628,19.368980008582962,-0.00900066957200371,-0.021698688743257328,6.059904844376107,3.378125366881959,-0.04548992848470232,-0.10868651428027358,44.048421116695714,14.768849297467398,332109454713.49854,0.0,11715949.388769532,0.3934601448813618,0.5868956285457442,0.39193784236448964,-0.5891751550315935,-0.04548992848470232,-0.10868651428027358,44.048421116695714
25.4,-91.44639387783486,33.645587914773586,281.6303069804064,298.0102319539865,0,8.94821553070147,224.66257787119167,11.029592423254899,19.38767689934688,-0.004553743495776546,-0.010870062131616048,2.8045336145874087,3.0774851092638786,0.022234630381135895,0.054143133058206595,-16.27685614894355,16.58170418997989,332109454713.49854,0.0,11715949.388769532,0.3924884840080592,0.5874869727233107,0.39084261280734606,-0.5899609299058559,0.022234630381135895,0.054143133058206595,-16.27685614894355
25.5,-91.44731467818119,33.64340953674682,281.9728816447214,298.3340348504267,0,8.935096251230048,224.6249164703611,11.02950677958882,19.39909605482405,-0.009208003463214579,-0.02178378026762542,3.4257466431500427,3.966391095472434,-0.04654259967437966,-0.10913718136009218,6.212130285626253,24.606941539119482,332109454713.49854,0.0,11715949.388769532,0.3920682741549023,0.5873147021147489,0.38937093769494924,-0.5913832783902637,-0.04654259967437966,-0.10913718136009218,6.212130285626253
25.7,-91.44824599985603,33.64122711116236,282.2612687556854,298.6066605043569,0,8.904557128310831,224.54364546385537,11.029434682811079,19.408708958522848,-0.004656608374205023,-0.010912127922324582,1.4419355548201958,3.326466996076488,0.02275697544504786,0.05435826172650439,-9.91905544164927,18.88227743733843,332109454713.49854,0.0,11715949.388769532,0.3913134862147594,0.5875875276403292,0.3881070248853081,-0.5924420563250481,0.02275697544504786,0.05435826172650439,-9.91905544164927
25.8,-91.44918695231728,33.639041036153074,282.8712275208833,299.18333883296907,0,8.893782090320075,224.50003947021156,11.029282193119778,19.429040917362776,-0.009409524612493536,-0.021860750092841073,6.099587651978508,3.3985137243336263,-0.047529162382884446,-0.10948622170516335,46.57652097158246,16.304117576289663,332109454713.49854,0.0,11715949.388769532,0.389550407555365,0.5894736306194639,0.3880333963178187,-0.5917781696884531,-0.047529162382884446,-0.10948622170516335,46.57652097158246
26.01,-91.45013809479994,33.63685102994093,283.47189205023255,299.7513621108453,0,8.864007371422817,224.40203165560322,11.029132026987442,19.449063068341083,-0.004529249917441427,-0.01042860101021922,2.860307282615578,3.347264084063957,0.023239403309771853,0.054438805155341934,-15.42514461601389,15.072387933738781,332109454713.49854,0.0,11715949.388769532,0.3885967277243471,0.5900854578907149,0.38705513017043325,-0.5924357026687234,0.023239403309771853,0.054438805155341934,-15.42514461601389
26.1,-91.45109976631647,33.63465673083589,283.7567132559826,300.020776113435,0,8.851380837055933,224.3573630475999,11.029060821686004,19.45855710853275,-0.010685239072611508,-0.024381101167057967,3.164680063889596,3.630332300358316,-0.0683998795018899,-0.15502777952043076,3.3819197919335364,13.40096053022477,4389901562.381336,0.0,353223098714.98047,0.3884689934001558,0.5894096188430249,0.3852151205856214,-0.5943883017474311,-0.0683998795018899,-0.15502777952043076,3.3819197919335364
26.2,-91.45207137565724,33.6324586872349,284.07366215271367,300.32061062321543,0,8.837259906350814,224.30585847190287,11.028981584461821,19.469122071757123,-0.009716093407661426,-0.02198043600991231,3.169488967310553,3.041828272359127,0.009691456649501029,0.024006651571457083,0.04808903420956959,4.685559126742247,4389901562.381336,0.0,353223098714.98047,0.38736942447523437,0.5902645331541576,0.38444339761950364,-0.5947570797466831,0.009691456649501029,0.024006651571457083,0.04808903420956959
26.4,-91.45305328139112,33.630257147620746,284.6451221573353,300.8612649017291,0,8.80809645155065,224.19694427119282,11.028838719460666,19.488170738577843,-0.004909528669401215,-0.011007698070777434,2.8573000231082903,3.063593531221394,0.02403282369130114,0.054863689695674574,-1.560944721011318,1.7887837531071014,4389901562.381336,0.0,353223098714.98047,0.38573597818070243,0.5919025616787552,0.3841122638038644,-0.5944046445062273,0.02403282369130114,0.054863689695674574,-1.560944721011318
26.5,-91.45404488186587,33.62805141056104,284.9608242890851,301.16002315453574,0,8.793669325470615,224.13953948679304,11.028759793927728,19.498694142969505,-0.00991600474748097,-0.022057370597039182,3.157021317497834,2.721941746553548,-0.050064760780796844,-0.1104967252626159,2.997212943895395,2.6242004751116292,4389901562.381336,0.0,353223098714.98047,0.3855165357224915,0.5914444845552156,0.3825746694909861,-0.5959924870647338,-0.050064760780796844,-0.1104967252626159,2.997212943895395
26.7,-91.45504680520857,33.62584228470715,285.55465056952715,301.7220265697943,0,8.764157845355884,224.018847306362,11.028611337357617,19.518488352317572,-0.005009616713493888,-0.011045629269474984,2.969131402210234,3.2596798049003746,0.0245319401699355,0.055058706637821184,-0.939449576438004,11.416786017588239,4389901562.381336,0.0,353223098714.98047,0.38384728361385145,0.5931421864627504,0.3822825129676921,-0.5955700544684578,0.0245319401699355,0.055058706637821184,-0.939449576438004
26.9,-91.45605888932619,33.623629048793084,285.84594702254924,301.9977890104442,0,8.731257634545745,223.89032966901024,11.028538513244362,19.528198234084975,-0.005060420588094435,-0.01106617957031379,1.4564822651104288,3.270242278343441,-0.00025401937300273495,-0.00010275150419403226,-7.563245685499053,17.00073678010333,4389901562.381336,0.0,353223098714.98047,0.383735519580441,0.5924608892152429,0.38054295469622473,-0.5974313394806802,-0.00025401937300273495,-0.00010275150419403226,-7.563245685499053
27.0,-91.45708115190608,33.62141258163448,286.4317689743622,302.55240100616163,0,8.719077450211282,223.82314338951878,11.02839205775641,19.54772563247874,-0.010222625798945582,-0.02216467158603987,5.858219518129802,3.222633392333897,-0.051622052108510744,-0.11098492015725922,44.01737253019311,16.415975139620944,4389901562.381336,0.0,353223098714.98047,0.38197097133390817,0.5943279244971812,0.3803827900632667,-0.5968093734558702,-0.051622052108510744,-0.11098492015725922,44.01737253019311
27.1,-91.45811326041638,33.61919206212746,286.7227724534966,302.82797889145735,0,8.703863605886283,223.75400942197925,11.028319306886626,19.557425748449887,-0.0103210851030154,-0.022205195070199264,2.910034791343564,3.210862269245779,-0.0009845930406981692,-0.000405234841593932,-29.481847267861962,16.25809347847894,4389901562.381336,0.0,353223098714.98047,0.3818929867700339,0.5936197843026211,0.3786930480609209,-0.5986358439741989,-0.0009845930406981692,-0.000405234841593932,-29.481847267861962
27.3,-91.4591556221066,33.6169683792476,287.3065811908001,303.38086509479444,0,8.673204767092841,223.60991079962054,11.0281733547023,19.57688603969334,-0.005211808451122142,-0.01111841439929155,2.9190436865175786,3.4958176031556576,0.02554638325946638,0.055433903354538766,0.045044475870073146,14.77685756319554,4389901562.381336,0.0,353223098714.98047,0.38012623870120316,0.595492506438041,0.37853055168434474,-0.5980027916896051,0.02554638325946638,0.055433903354538766,0.045044475870073146
27.4,-91.46020764400805,33.61474073204884,287.5976008194355,303.656550026281,0,8.65774556599126,223.5349525491609,11.02810059979514,19.586586693981186,-0.01052021901443845,-0.022276471987652733,2.9101962863541697,2.90344345252231,-0.0530841056331642,-0.11158057588361421,-0.08847400163409092,5.988438937683278,4389901562.381336,0.0,353223098714.98047,0.38007176223773737,0.5947588120059077,0.3768679606806774,-0.5998149308771911,-0.0530841056331642,-0.11158057588361421,-0.08847400163409092
27.6,-91.46127016293441,33.612509929662366,288.1738574748772,304.20246037062185,0,8.626536653598883,223.37923482686017,11.027956535631281,19.605795249162572,-0.00531259463180326,-0.011154011932354832,2.88128327720837,2.8925931773438287,0.026038121913175578,0.05561230027648871,-0.14456504572899725,0.17700064075952504,7023097349.325,0.0,177270872857.2746,0.37829680195771626,0.5966318994451716,0.37667819054760493,-0.5991956666722427,0.026038121913175578,0.05561230027648871,-0.14456504572899725
27.8,-91.46234272548219,33.61027538129561,288.75313209490827,304.75134461173366,0,8.595060011551368,223.2158053548394,11.027811716976272,19.625104403163608,-0.005362812738880526,-0.011172741833789286,2.8963731001553685,2.889109238976968,-0.0002510905353863297,-9.364950717226753e-05,0.07544911473499365,0.25335807538642785,16201588507.3375,0.0,356828765358.1746,0.3773933537589335,0.5972005394295172,0.37578199973106174,-0.5997613366346671,-0.0002510905353863297,-9.364950717226753e-05,0.07544911473499365
27.9,-91.46342448803131,33.608037266231065,289.0387099196172,305.02202218850164,0,8.579174033712953,223.13120773855115,11.027740322520096,19.63462366398724,-0.010817625491199809,-0.02238115064543015,2.8557782470892943,2.8772330752090527,-0.054548127523194,-0.11208408811641102,-0.4059485306607511,0.27511600593920227,16201588507.3375,0.0,356828765358.1746,0.3774074353912542,0.5963805080693111,0.3741365616454615,-0.6015943405206687,-0.054548127523194,-0.11208408811641102,-0.4059485306607511
28.0,-91.46451595674553,33.60579580382527,289.3288641913941,305.2970665517314,0,8.56326494222575,223.0446931867965,11.02766778395215,19.64429547304647,-0.010914687142218172,-0.022414624057915625,2.9015427177688067,2.5826483876915844,-0.0009706165101836182,-0.00033473412485474996,0.45764470679511743,1.6862645902202065,16201588507.3375,0.0,356828765358.1746,0.37650744730196106,0.596960107121646,0.37328629405013813,-0.6021113811462026,-0.0009706165101836182,-0.00033473412485474996,0.45764470679511743
28.2,-91.46561814757307,33.60355094350769,289.89904265492737,305.83755961518847,0,8.531146354983381,222.8659287422218,11.027525239336267,19.663301421830912,-0.00551095413769078,-0.01122430158790881,2.850892317666488,3.1085720976072757,0.027018665022637056,0.05595161235003428,-0.25325200051159324,9.90647412113583,16201588507.3375,0.0,356828765358.1746,0.3747417466992995,0.5988339512196905,0.3731017066063649,-0.6014662406775539,0.027018665022637056,0.05595161235003428,-0.25325200051159324
28.4,-91.4667292662471,33.601302814779636,290.1807087571993,306.1046452577059,0,8.495889790185657,222.67954380099016,11.0274548228107,19.672690291906644,-0.005555593370161225,-0.01124064364027792,1.4083305113595708,3.0465238917967046,-0.00022319616235222462,-8.171026184555814e-05,-7.212809031534613,12.8019161018489,16201588507.3375,0.0,356828765358.1746,0.3747930108262783,0.5979614312299336,0.37147101839260116,-0.6033088829874679,-0.00022319616235222462,-8.171026184555814e-05,-7.212809031534613
28.5,-91.46785103828618,33.59905112721316,290.73330484748254,306.6286329711405,0,8.482289073159915,222.58350394593364,11.027316673788128,19.69111016158275,-0.011217720390845738,-0.02251687566477724,5.525960902832516,2.9352706528014383,-0.05662127020684433,-0.11276232024499158,41.17630391472886,13.11192225269306,16201588507.3375,0.0,356828765358.1746,0.37302952635418546,0.5998616350440614,0.3713352077558646,-0.602598668062871,-0.05662127020684433,-0.11276232024499158,41.17630391472886
28.7,-91.46898237899504,33.59679599045,291.2424276773347,307.11149623167864,0,8.448956378632584,222.3857508088605,11.027189393080667,19.708080922577825,-0.005656703544261197,-0.011275683815803501,2.5456141492608797,2.808226888097243,0.027805084232922807,0.05620595924486889,-14.901733767858234,13.319152807421654,16201588507.3375,0.0,356828765358.1746,0.3722647234289566,0.6002565458221737,0.3704244995547292,-0.6032385473571992,0.027805084232922807,0.05620595924486889,-14.901733767858234
28.8,-91.47012248346488,33.59453813420042,291.47695240059505,307.3340041068171,0,8.432008223328172,222.28404631583962,11.027130761899851,19.715898413353166,-0.011401044698402368,-0.02257856249578051,2.3452472326033225,2.933216764725287,-0.057443411541410895,-0.1130287867997685,-2.003669166575544,12.059288712941143,16201588507.3375,0.0,356828765358.1746,0.37255148778897523,0.5989781800618036,0.36855514091078095,-0.6054730686531853,-0.057443411541410895,-0.1130287867997685,-2.003669166575544
28.9,-91.47127215657402,33.59227717824219,291.69850797337904,307.5442314039679,0,8.414878653080097,222.1804625388317,11.027075373006655,19.723283599112634,-0.011496731091398505,-0.022609559582278876,2.215555727839889,2.0215552888041053,-0.0009568639299613875,-0.00030997086498366045,-1.2969150476343627,4.889658422022288,16201588507.3375,0.0,356828765358.1746,0.3718203414153533,0.599295633043212,0.3675879404871,-0.6061959121716,-0.0009568639299613875,-0.00030997086498366045,-1.2969150476343627
29.1,-91.47243195298847,33.59001222241941,292.1051671540734,307.93006252492717,0,8.380107565583263,221.96767563099903,11.02697370821148,19.736838905135777,-0.005798982072278054,-0.011324779113905786,2.0332959034717812,2.2349618903844544,0.028488745095601852,0.056423902341864646,-0.9112991218405256,7.199269669829225,507380610460.075,0.0,907402617867.1246,0.3700080276546449,0.6013884617614744,0.36769998051921554,-0.6051633679077539,0.028488745095601852,0.056423902341864646,-0.9112991218405256
29.3,-91.47360043716247,33.5877449966415,292.2986925033311,308.11374820032614,0,8.34302152353511,221.74742791358565,11.026925326874167,19.74328975011104,-0.005842420870010322,-0.011336128889567516,0.9676267462884914,2.1312454501204936,-0.00021719398866134113,-5.6748878308650533e-05,-5.328345785916468,8.5836113435306,507380610460.075,0.0,907402617867.1246,0.37048068970077763,0.5997711040657934,0.3656300125986041,-0.607728043761089,-0.00021719398866134113,-5.6748878308650533e-05,-5.328345785916468
29.4,-91.47477886333907,33.58547389088199,292.659951284066,308.4565873995298,0,8.3270594822842,221.63451843546756,11.026835012178983,19.755331709468866,-0.011784261765939415,-0.0227110575950467,3.612587807348936,2.1008033912414557,-0.0594184089592922,-0.11374928705479426,26.44961061060501,8.7980775867061,507380610460.075,0.0,907402617867.1246,0.3685281651608976,0.6021262594691694,0.3659272880757516,-0.6064059522979093,-0.0594184089592922,-0.11374928705479426,26.44961061060501
29.6,-91.47596610555061,33.58319957517753,293.0253025614475,308.8033542723879,0,8.291445561402941,221.40315333108774,11.026743674359638,19.767510085381584,-0.005936211057715384,-0.011371578522307696,1.8267563869076493,1.8598946723354934,0.02924025354111974,0.05669739536369421,-8.929157102206307,9.850085002295184,507380610460.075,0.0,907402617867.1246,0.3677667594049992,0.6025967600730326,0.36519331302331076,-0.6068431424588133,0.02924025354111974,0.05669739536369421,-8.929157102206307
29.7,-91.47716255761945,33.58092361962671,293.23163560289436,308.99925860605066,0,8.273820013931235,221.28470798768143,11.026692091099276,19.77438785342981,-0.011964520688394742,-0.022759555508216553,2.06333041446844,2.385256076698111,-0.06028309630679486,-0.113879769859091,2.365740275607959,14.31594250124337,507380610460.075,0.0,907402617867.1246,0.3678819390832417,0.6014680219873094,0.3633260374291004,-0.6090100885445949,-0.06028309630679486,-0.113879769859091,2.365740275607959
29.9,-91.4783683631584,33.578645054388986,293.39737397806874,309.1566533964635,0,8.235999163953377,221.04231803929207,11.026650656505483,19.779912465935624,-0.006029027694722821,-0.011392826188618739,0.8286918758719283,2.054151536667658,0.02967746496835971,0.05683364659798927,-6.173192692982581,10.663320905815063,507380610460.075,0.0,907402617867.1246,0.36760707596738373,0.6010222958394986,0.3619336589237083,-0.6104434979100236,0.02967746496835971,0.05683364659798927,-6.173192692982581
30.0,-91.47958284557137,33.57636237968356,293.7568164588709,309.4979053310416,0,8.219808180708444,220.91838420715567,11.026560795885281,19.791893881962363,-0.012144824129762638,-0.02282674705426725,3.5944248080215346,2.0218510068735043,-0.061157964350397304,-0.11433920865648348,27.65732932149567,9.462057076092758,507380610460.075,0.0,907402617867.1246,0.36541520192956106,0.6039721653092034,0.3627960443470558,-0.6083324616824418,-0.061157964350397304,-0.11433920865648348,27.65732932149567
30.2,-91.48080615805398,33.574077165788296,294.1482390194317,309.86955815487016,0,8.184068900255577,220.6650663675043,11.02646294024514,19.804941300647723,-0.0061165624130410596,-0.011426069476314677,1.9571128028039266,1.936048279443065,0.030141308583608,0.05700338788976306,-8.186560026088069,9.049861347027477,507380610460.075,0.0,907402617867.1246,0.3645366612920449,0.6046076474917302,0.36213065084345186,-0.6086246847510071,0.030141308583608,0.05700338788976306,-8.186560026088069
30.3,-91.4820392735941,33.57179087303858,294.31474863610697,310.0277405601203,0,8.165869863734368,220.53569361851822,11.026421312840974,19.810491621203564,-0.012331155401170515,-0.0228629274971578,1.6650961667528226,2.0434590053153854,-0.06214592988129367,-0.11436858020842959,-2.9201663605109993,8.083956209158085,507380610460.075,0.0,907402617867.1246,0.3652009259094048,0.6024333145012374,0.35954804256843975,-0.6119048867096667,-0.06214592988129367,-0.11436858020842959,-2.9201663605109993
30.4,-91.48328161497244,33.569502141826234,294.4781755874701,310.18300757201274,0,8.147617728507905,220.40451928982168,11.026380456103132,19.815939186249004,-0.012423413783438074,-0.022887312123459003,1.6342695136313872,1.4444119312139772,-0.0009225838226756116,-0.00024384626301204686,-0.30826653121436054,4.08679915067162,507380610460.075,0.0,907402617867.1246,0.3644425400383584,0.6028110899739977,0.35868149950527867,-0.612493270760908,-0.0009225838226756116,-0.00024384626301204686,-0.30826653121436054
30.6,-91.48453219476322,33.567209682598396,294.7513322543057,310.4424665899598,0,8.110517626063595,220.13678929290208,11.026312166936423,19.825044408476856,-0.006252898953888942,-0.011462296139192866,1.3657833341778576,1.1653652781307255,0.030852574147745226,0.057125079921329876,-1.3424308972676289,2.4869406890680517,507380610460.075,0.0,907402617867.1246,0.36265888991670014,0.6051359422883904,0.3592084364935618,-0.6109487049392767,0.030852574147745226,0.057125079921329876,-1.3424308972676289
30.7,-91.4857929353347,33.564916115856406,294.81120331960204,310.4994355963037,0,8.091175055477708,220.00024552374597,11.026297199170099,19.827040110653403,-0.012607405714817601,-0.02293566741990154,0.5987106529636449,0.8436183555772574,-0.06354506760928795,-0.11473371280708919,-7.6707268121422905,2.4090969160070714,507380610460.075,0.0,907402617867.1246,0.36773907367989267,0.5951883924068161,0.352014739711381,-0.6217751798352624,-0.06354506760928795,-0.11473371280708919,-7.6707268121422905
30.91,-91.48706190884981,33.5626200121547,294.92917786854395,310.6115772423965,0,8.050433925457158,219.70772426727808,11.026267705532863,19.83097259561813,-0.00604273102433286,-0.010933827150964881,0.561783566390007,0.5644423007838093,0.03126035566897483,0.05715162032826957,-0.1758432693982748,2.712643891316012,507380610460.075,0.0,907402617867.1246,0.3632390177069197,0.6022296728340577,0.3552513777735255,-0.6157704895198437,0.03126035566897483,0.05715162032826957,-0.1758432693982748
31.11,-91.48834111726683,33.560322282099676,294.9401807885052,310.6221531630091,0,8.010577571516478,219.42189622015724,11.026264954802873,19.83133935961684,-0.006396042085086174,-0.01148865027513328,0.055014599806213677,0.3417026029394347,-0.0017665553037665724,-0.0027741156208420047,-2.5338448329189758,2.4741344291509417,9.07369408700458,0.0,0.3678423785019448,0.39779467984682154,0.5340612860566373,0.31392189350040195,-0.6767503086088825,-0.0017665553037665724,-0.0027741156208420047,-2.5338448329189758
31.21,-91.48962787233987,33.55802238634861,294.9638944690409,310.64480023822284,0,7.990821341109457,219.27635088452203,11.02625902638274,19.832129815634694,-0.012867550730390849,-0.02299895751065118,0.23713680535706436,0.28147737114599786,-0.06471508645304583,-0.11510307235517737,1.8212220555084808,0.9898594738337845,8.249017573209638,0.0,0.36255847256279605,0.37691606056367394,0.5752992440171726,0.3373484738367725,-0.6427760654554826,-0.06471508645304583,-0.11510307235517737,1.8212220555084808
31.3,-91.49092530561965,33.5557208856085,294.9864334018795,310.66633501007607,0,7.973049121891111,219.1438674006834,11.02625339164953,19.832881113395985,-0.014415925330979485,-0.025572230445665926,0.25043258709539906,0.23308109213911826,-0.01720416222876265,-0.028591921500163868,0.14773090820371917,1.0020368746130925,8.249017573209638,0.0,0.36255847256279605,0.3768862257614952,0.5739080507715953,0.33528808974597135,-0.6451110129003385,-0.01720416222876265,-0.028591921500163868,0.14773090820371917
31.5,-91.49222945845399,33.55341751063498,295.04600588091466,310.72303658435453,0,7.933645564074849,218.8444214991993,11.026238498529771,19.834866862697154,-0.006520764171682482,-0.011516874867609814,0.2978623951759129,0.3987284041647674,0.03947580579648516,0.0702767778902808,0.23714904040257,1.0612850743807125,8.249017573209638,0.0,0.36255847256279605,0.3639431212192004,0.5971685353566204,0.3481313152772607,-0.6242913840672317,0.03947580579648516,0.0702767778902808,0.23714904040257
31.6,-91.49354482198858,33.55111218223119,295.077889702197,310.75345028472304,0,7.913966283155863,218.6921055835275,11.02623052757445,19.8359296567399,-0.013153635345872584,-0.0230532840378569,0.3188382128234889,0.37323176311002515,-0.06632871174190008,-0.11536409170246921,0.20975817647575704,1.691097294473917,8.249017573209638,0.0,0.36255847256279605,0.36954899511910855,0.5855571691703776,0.340063897984079,-0.636327657050599,-0.06632871174190008,-0.11536409170246921,0.20975817647575704
31.8,-91.4948674671674,33.548805101246664,295.2548298639261,310.92161014399096,0,7.87575248962879,218.38232166987942,11.026186292534017,19.841827662130868,-0.006613225894085441,-0.01153540492264686,0.8847008086453942,0.35722894044430065,0.032702047258935836,0.05758939557605039,2.829312979109537,2.222162297424533,8.249017573209638,0.0,0.36255847256279605,0.35713878628642026,0.6072188732430823,0.3518114959765778,-0.6164136586789644,0.032702047258935836,0.05758939557605039,2.829312979109537
32.0,-91.49619887473368,33.546497198576176,295.23276746644075,310.90080229666887,0,7.835579387809247,218.06571433346755,11.02619180813339,19.84109224888136,-0.0066570378314168245,-0.011539513352438788,-0.11031198742671261,0.31045583860758874,-0.00021905968665692023,-2.0542148959634762e-05,-4.975063980360552,2.629048730625591,8.249017573209638,0.0,0.36255847256279605,0.3742600177718313,-0.5744331243732297,-0.33178115687287535,-0.647979389073707,-0.00021905968665692023,-2.0542148959634762e-05,-4.975063980360552
32.1,-91.49754177523023,33.54418630515866,295.24977201221134,310.91709579733305,0,7.815789707880017,217.90486942364905,11.026187556996947,19.84165906707371,-0.013429004965530376,-0.023108934175155253,0.17004545770589388,0.25772649748498555,-0.06771967134113455,-0.115694208227163,2.8035744513260252,2.688065037900073,8.249017573209638,0.0,0.36255847256279605,0.3790832182409098,0.5632835020334489,0.3241534772050551,-0.6587352527388526,-0.06771967134113455,-0.115694208227163,2.8035744513260252
32.2,-91.4988932390003,33.54187366197605,295.24392750582984,310.91169402546706,0,7.795785208116568,217.74233985920674,11.026189018123542,19.841464250194328,-0.013514637700637685,-0.02312643182612784,-0.058445063814928366,0.13778652960339194,-0.0008563273510730756,-0.0001749765097258635,-2.28490521520819,2.479496607395316,8.249017573209638,0.0,0.36255847256279605,0.4188908155576006,-0.46842811346535823,-0.2688079952421983,-0.7299642791607298,-0.0008563273510730756,-0.0001749765097258635,-2.28490521520819
32.41,-91.50025261618812,33.539560120052194,295.25544075400126,310.92277757782944,0,7.754066994823455,217.39557644805382,11.0261861398115,19.841848025133373,-0.0064732247039281056,-0.011016866304068163,0.05482499129243642,0.25094265490894085,0.033530538079570425,0.057664597724095414,0.5393812147969913,2.2681182136231586,8.249017573209638,0.0,0.36255847256279605,0.38903656351675275,0.5395888310075715,0.30879167477361463,-0.6798103759795551,0.033530538079570425,0.057664597724095414,0.5393812147969913
32.6,-91.50162267673961,33.53724407045169,295.20133846553375,310.871555347478,0,7.715751672871702,217.07552064172225,11.026199665383617,19.84004461551779,-0.007210845007863682,-0.01218973473948344,-0.2847488866710687,0.2219838942433469,-0.0038822121259766214,-0.006172991765343408,-1.7872309366499812,3.051318445810304,8.249017573209638,0.0,0.36255847256279605,0.3589031267009715,-0.5987841154002786,-0.3414956735027584,-0.6293066293687598,-0.0038822121259766214,-0.006172991765343408,-1.7872309366499812
32.7,-91.50300050040305,33.5349270842788,295.1337027513293,310.8074853262621,0,7.6952274989805325,216.90467764296184,11.026216574312167,19.837790091710975,-0.013778236634322897,-0.023169861728930766,-0.6763571420446982,0.24506917116274202,-0.06567391626459121,-0.1098012698944717,-3.91608255373624,2.7699840381272782,8.249017573209638,0.0,0.36255847256279605,0.35649380195881636,-0.6022745448485288,-0.34256833944291254,-0.6267571097353194,-0.06567391626459121,-0.1098012698944717,-3.91608255373624
32.8,-91.50438915672966,33.53260768267627,295.13329482437376,310.8072565543431,0,7.675401213701284,216.732194442381,11.026216676293906,19.837776494145793,-0.013886563266113051,-0.023194016025273254,-0.004079269555177466,0.26696962157333975,-0.0010832663179015994,-0.0002415429634248857,6.72277872489559,3.0057325991043946,8.249017573209638,0.0,0.36255847256279605,0.4917287367928645,-0.06508573114359857,-0.036891611277743014,-0.8675285044486601,-0.0010832663179015994,-0.0002415429634248857,6.72277872489559
33.0,-91.50578632507444,33.53028872682427,295.0974534997271,310.7733840841232,0,7.635483146710776,216.38233817188154,11.026225636625067,19.836581783324235,-0.006985841723903164,-0.011594779260022227,-0.17920662323319647,0.23997696825361353,0.03450360771104894,0.05799618382625431,-0.8756367683900826,2.692752767214441,8.249017573209638,0.0,0.36255847256279605,0.36068751249215814,-0.5920041061234282,-0.33446995887652564,-0.6384085708027071,0.03450360771104894,0.05799618382625431,-0.8756367683900826
33.2,-91.50719339459665,33.527966937939205,295.1305014945133,310.80492905092507,0,7.596380165263412,216.02601402597276,11.026217374626372,19.837683383150445,-0.007035347611079501,-0.011608944425311853,0.1652399739307929,0.16208441547946442,-0.0002475294358816803,-7.082582644812773e-05,1.7222329858199226,2.0492269327429016,8.249017573209638,0.0,0.36255847256279605,0.3609565852543885,0.5903334147546848,0.3325201081424136,-0.6408175876694726,-0.0002475294358816803,-7.082582644812773e-05,1.7222329858199226
33.3,-91.50860927426066,33.525646507272604,295.14526712790916,310.8191166145428,0,7.576863344193286,215.8454462506239,11.026213683218023,19.838175570930304,-0.014158796640089927,-0.023204306666003913,0.14765633395882943,0.2214256893727992,-0.07123449029010831,-0.11595362240692719,-0.17583639971964465,0.7731867610896924,8.249017573209638,0.0,0.36255847256279605,0.37612396256524794,0.558012577278373,0.31320164452616267,-0.670117495853877,-0.07123449029010831,-0.11595362240692719,-0.17583639971964465
33.5,-91.51003420283652,33.523322316110026,295.20268872113536,310.8738119029997,0,7.538222943864554,215.4795394208042,11.026199327819716,19.840089624037844,-0.007124642879290276,-0.011620955812894187,0.28710796613097095,0.34174723292553494,0.035170768803997755,0.05791675426554781,0.6972581608606977,3.0505200354472306,8.249017573209638,0.0,0.36255847256279605,0.3535397426310815,0.6021760610535796,0.3371528634671194,-0.631444050197851,0.035170768803997755,0.05791675426554781,0.6972581608606977
33.61,-91.51146800890068,33.52099984576986,295.23822909744433,310.9077325001731,0,7.517079859648817,215.27559793865814,11.026190442725639,19.841274303248145,-0.01303460058323942,-0.021113366728800848,0.32309433008157035,0.4601240166171561,-0.05372688821771978,-0.086294644690061,0.32714876318726893,4.2444532837226925,8.249017573209638,0.0,0.36255847256279605,0.3574317240389824,0.5934056585903352,0.33103438918577355,-0.6407249957508238,-0.05372688821771978,-0.086294644690061,0.32714876318726893
33.7,-91.51291073083674,33.51867283760227,295.1679631821102,310.8411825165705,0,7.498826588273335,215.10732521075317,11.026208009204472,19.83893210607034,-0.016030243733981982,-0.025855646306558462,-0.7807323926012898,0.5405819229363434,-0.033284923897138316,-0.052691995308415944,-12.264741363142427,5.509796629240572,-174436742621860.56,0.0,-99072487502.50203,0.35053024180070164,-0.6056980903769661,-0.3371376068922454,-0.6297591658053163,-0.033284923897138316,-0.052691995308415944,-12.264741363142427
33.9,-91.51436247683604,33.51634840298797,295.31947450241734,310.985234649808,0,7.4614737364549,214.72886979090566,11.026170131374395,19.84398248341391,-0.007258729996522261,-0.011622173071472978,0.7575566015356278,0.725917908322075,0.04385756868729954,0.07116736617542893,7.691444970684752,6.6930613205416165,-87334956312304.4,0.0,-270477416328.34653,0.34596787248038763,0.6127937106496979,0.33976658854010033,-0.6239781764704522,0.04385756868729954,0.07116736617542893,7.691444970684752
34.1,-91.51582303489839,33.514018993337224,295.20902328764936,310.88052812179876,0,7.421697941132948,214.3442404412284,11.026197744178088,19.840300776254978,-0.007302790311740533,-0.011647048253742133,-0.5522560738398773,0.7851921299897422,-0.00022030157609135637,-0.00012437591134577435,-6.549063376877432,8.458659922537587,-87334956312304.4,0.0,-270477416328.34653,0.34657030906409275,-0.6109658659302066,-0.33805058633781226,-0.6263637382703706,-0.00022030157609135637,-0.00012437591134577435,-6.549063376877432
34.2,-91.51729358283293,33.51169193008856,295.08764336907757,310.7654514096757,0,7.401227093044527,214.14963186814148,11.02622808915773,19.836254778969252,-0.014705479345451314,-0.02327063248664241,-1.2137991857178858,1.138186069868865,-0.07402689033710676,-0.11623584232900111,-6.615431118779991,12.338556407708833,-87334956312304.4,0.0,-270477416328.34653,0.3450920471864371,-0.6122543684624245,-0.33735445850441015,-0.6262970833354947,-0.07402689033710676,-0.11623584232900111,-6.615431118779991
34.4,-91.51877283825864,33.509364314707746,295.2116960799496,310.8834327863052,0,7.364120335968361,213.75587017127594,11.026197075980011,19.840389869331652,-0.007396277128535347,-0.011638076904070508,0.6202635543601919,1.06402095757938,0.03654601108458062,0.058162777912860744,9.170313700390585,16.131410587443348,-87334956312304.4,0.0,-270477416328.34653,0.34421420646479445,0.612826115435923,0.33664681088867454,-0.6266016733348336,0.03654601108458062,0.058162777912860744,9.170313700390585
34.5,-91.52026051860511,33.507031508686616,294.95708165547705,310.64185047194337,0,7.342487791137911,213.5567345479524,11.02626072958613,19.831902721849236,-0.014876803464715992,-0.023328060211298074,-2.5461442447254607,1.1981720248315952,-0.07480526336180539,-0.116899833072274,-31.66407799085608,16.515454121500976,-87334956312304.4,0.0,-270477416328.34653,0.3418089316996235,-0.616640404938744,-0.3381148032407675,-0.623377610310798,-0.07480526336180539,-0.116899833072274,-31.66407799085608
34.61,-91.5217562811133,33.50469793354192,294.9995453328247,310.6823593366233,0,7.321987578074132,213.33596313235807,11.026250113666794,19.833318177760823,-0.013597840983498607,-0.021214319497240598,0.3860334304332292,1.0003742047744866,0.011626931647430835,0.01921582467324988,26.656160683260957,18.085181978405235,-87334956312304.4,0.0,-270477416328.34653,0.3501251940466445,0.5998645610958572,0.328016013383587,-0.6402970808921532,0.011626931647430835,0.01921582467324988,26.656160683260957
34.8,-91.52326451283625,33.50236632081423,294.76715725109733,310.4619034440035,0,7.283701196069506,212.95041498136132,11.026308210687226,19.82557190836991,-0.00793806169974397,-0.012271645935195493,-1.2230951669862193,0.9704730613790626,0.0297883120197616,0.04706670295813269,-8.469097881155093,16.94530679135763,-2216525806020.9805,0.0,68728653052.06355,0.33997208904215226,-0.6173930183998746,-0.3359338931242123,-0.6248145796584915,0.0297883120197616,0.04706670295813269,-8.469097881155093
34.9,-91.52477802063977,33.50003050206676,294.78949675132793,310.4833078126229,0,7.265092411759639,212.74536750193124,11.026302625812168,19.8263165583776,-0.015135078035228629,-0.023358187474755376,0.2233950023060029,0.4870484278613139,-0.07197016335484556,-0.11086541539559726,14.464901692922018,10.954721215056733,-4433051612201.631,0.0,137457306104.29022,0.35798835225501113,0.5815746632506439,0.316154056518162,-0.6585300777198815,-0.07197016335484556,-0.11086541539559726,14.464901692922018
35.1,-91.52630302120325,33.49769773888424,294.69535577646496,310.3941246459927,0,7.226693358820713,212.33091568811068,11.026326161055884,19.823178525882167,-0.007625002817377327,-0.01166381591257687,-0.4707048743148267,0.43218855862086336,0.037550376089255974,0.0584718578108917,-3.470499383104099,6.099178163761382,-4433051612201.631,0.0,137457306104.29022,0.3414006256087383,-0.6126578179620507,-0.3314431655548405,-0.631063736029038,0.037550376089255974,0.0584718578108917,-3.470499383104099
35.3,-91.52783727102026,33.49536329287181,294.6696729713604,310.3699414032878,0,7.189266982055608,211.91071624109645,11.02633258175716,19.822322432378677,-0.007671249085064055,-0.011672230062167692,-0.12841402552283218,0.21889048433531172,-0.0002312313384336473,-4.207074795411269e-05,1.7114542439600093,4.931676680218009,-4433051612201.631,0.0,137457306104.29022,0.3533831507361397,-0.587729767425742,-0.317030350245061,-0.6551227566502144,-0.0002312313384336473,-4.207074795411269e-05,1.7114542439600093
35.4,-91.52937679639945,33.493024445653845,294.6805746827561,310.3804932636937,0,7.170903910944101,211.69848445965792,11.02632985632931,19.822685822758537,-0.015395253791865352,-0.02338847217963258,0.10901711395717784,0.1890898981154517,-0.07724004706801187,-0.11716242117464722,2.3743113948000665,2.1191508479468006,-4433051612201.631,0.0,137457306104.29022,0.37489128223393015,0.5395062397612426,0.2907702248110961,-0.6955876796831505,-0.07724004706801187,-0.11716242117464722,2.3743113948000665
35.5,-91.53092507346516,33.49068494887283,294.66515865927164,310.3660612097313,0,7.152355252020797,211.48484386190574,11.026333710335182,19.822171955309056,-0.01548277065708681,-0.023394967810119405,-0.15416023484476463,0.10236007599825296,-0.0008751686522145676,-6.495630486824574e-05,-2.631773488019387,1.4652242022841118,-4433051612201.631,0.0,137457306104.29022,0.36343621479649524,-0.5643660557763369,-0.30326666339950564,-0.6763389710288676,-0.0008751686522145676,-6.495630486824574e-05,-2.631773488019387
35.7,-91.53248548815826,33.48834697418821,294.6501965513905,310.35206397006056,0,7.115656751971413,211.05337426006213,11.026337450862153,19.821673218379683,-0.007802073465512538,-0.011689873423108399,-0.07481053940580189,0.17280409700871457,0.03840348595787082,0.058525471935054196,0.39674847719480805,1.9344956190165206,-4433051612201.631,0.0,137457306104.29022,0.36297501154230905,-0.5630276487341792,-0.3011340835908354,-0.6786510675278055,0.03840348595787082,0.058525471935054196,0.39674847719480805
