time,position_x,position_y,position_z,ground_station_distance,comm_range_status,wind_speed,wind_angle,battery_voltage,battery_current,velocity_x,velocity_y,velocity_z,velocity_total,acceleration_x,acceleration_y,acceleration_z,acceleration_total,angular_x,angular_y,angular_z,orientation_w,orientation_x,orientation_y,orientation_z,linear_acceleration_x,linear_acceleration_y,linear_acceleration_z
0.0,-79.78239570000002,25.104493849406726,269.3324017,282.020227786158,0,7.693324017,180.0,11.032666899575,18.977746723333333,-0.01174068971295128,-0.008281578929789646,0.012359152323995204,0.03268310207149368,-0.1173867194083301,-0.0820364830385501,0.2606566705736669,0.2525492987300545,2096509054454634.8,0.0,-8119215435750.4,0.2834811047439374,0.33149639037606826,0.10515097060511405,-0.8936956304031012,-0.1173867194083301,-0.0820364830385501,0.2606566705736669
0.2,-79.78474383794261,25.102837533620768,269.3348735304648,282.02310526124796,0,7.733346068691314,180.59998222238025,11.032666281617383,18.97782911768216,-0.01174068971295128,-0.008281578929789646,0.012359152323995204,0.03268310207149368,-0.1173867194083301,-0.0820364830385501,0.2606566705736669,0.2525492987300545,2096509054454634.8,0.0,-8119215435750.4,0.2834811047439374,0.33149639037606826,0.10515097060511405,-0.8936956304031012,-0.1173867194083301,-0.0820364830385501,0.2606566705736669
0.3,-79.78709177410799,25.101189010897404,269.3387160124029,282.0272923791961,0,7.753378160529021,180.89994000119998,11.032665320996898,18.97795720041343,-0.023479361653784288,-0.016485227233644654,0.03842481938136189,0.03268310207149368,-0.1173867194083301,-0.0820364830385501,0.2606566705736669,0.2525492987300545,2096509054454634.8,0.0,-8119215435750.4,0.26935883803903066,0.4273528563434691,0.13504440991593827,-0.8523956592427001,-0.1173867194083301,-0.0820364830385501,0.2606566705736669
0.5,-79.78943972672003,25.09954835758999,269.3430996973098,282.03199707517916,0,7.793389335514455,181.4997222376539,11.032664225075672,18.97810332324366,-0.011739763060205632,-0.008203266537076814,0.0219184245344195,0.03268310207149368,0.05869799296789328,0.041409803482839194,-0.08253197423471195,0.2525492987300545,2096509054454634.8,0.0,-8119215435750.4,0.2640591441251963,0.45396400745138066,0.14289163873205296,-0.8389108581506263,0.05869799296789328,0.041409803482839194,-0.08253197423471195
0.6,-79.79178739400491,25.097915599878313,269.3474454367244,282.03666617352775,0,7.813402467326133,181.79952003839853,11.03266313864082,18.978248181224146,-0.02347667284880118,-0.016327577116754814,0.043457394145889346,0.04018620044565665,-0.1173690978859555,-0.08124310579678001,0.2153896961146985,0.2525492987300545,2096509054454634.8,0.0,-8119215435750.4,0.26336292068309664,0.45276729170701835,0.14196623442169068,-0.8399329377121046,-0.1173690978859555,-0.08124310579678001,0.2153896961146985
0.81,-79.79413497419229,25.096290823767855,269.35001968225174,282.0396441853878,0,7.855323107926513,182.42881919217493,11.032662495079437,18.97833398940839,-0.011178953273218079,-0.007737029097415733,0.012258312034960212,0.03347436226410007,0.05856056940753855,0.040907371520662275,-0.14856705767109105,0.2450185849571768,2096509054454634.8,0.0,-8119215435750.4,0.27826578725764584,0.34238362320940263,0.10692706603552661,-0.8910152685273797,0.05856056940753855,0.040907371520662275,-0.14856705767109105
0.9,-79.7964821755163,25.094673985088942,269.35422728558433,282.0441826853013,0,7.873299371251866,182.698380291575,11.032661443178604,18.978474242852812,-0.026080014711264244,-0.017964874210147433,0.04675114813987119,0.03437613302710588,-0.16556734931162412,-0.1136427234747967,0.383253734499011,0.2627158194375395,2096509054454634.8,0.0,-8119215435750.4,0.2624135105835257,0.4474478166699994,0.13919529962461188,-0.8435367623185698,-0.16556734931162412,-0.1136427234747967,0.383253734499011
1.1,-79.79882917621686,25.093065189496,269.3537903985242,282.04428634622514,0,7.913094505659592,183.29704301743396,11.032661552400368,18.97845967995081,-0.011735003502764126,-0.008043977964717893,-0.0021844353005917574,0.02931562433378322,0.07172505604250057,0.04960448122714768,-0.24467791720231466,0.22903652130356536,2161503912760291.2,0.0,-4010859203056.091,0.2950950618806115,-0.07269154454424945,-0.02252224353826391,-0.9524324607821032,0.07172505604250057,0.04960448122714768,-0.24467791720231466
1.2,-79.80117580454068,25.09146444246675,269.35495257300516,282.04591775677346,0,7.93297394030789,183.59616122861277,11.032661261856749,18.97849841910017,-0.02346628323820713,-0.016007470292471758,0.01162174480953128,0.03161142787936106,-0.11731279735443018,-0.07963492327753875,0.13806180110123056,0.23499439320187926,2161503912760291.2,0.0,-4010859203056.091,0.2893308054008061,0.18437811354132513,0.056897870414467706,-0.9375793452478364,-0.11731279735443018,-0.07963492327753875,0.13806180110123056
1.4,-79.8035219187425,25.089871749301427,269.359482061114,282.0507655569529,0,7.972681049899613,184.19390487759242,11.032660129484722,18.978649402037135,-0.01173057100913866,-0.007963465826623663,0.022647440544290024,0.023710264350614494,0.05867856114534235,0.04022002232924048,0.05512847867379373,0.16263835787248299,2161503912760291.2,0.0,-4010859203056.091,0.2570232641075797,0.46306093927062375,0.14232868422243727,-0.8362153752932331,0.05867856114534235,0.04022002232924048,0.05512847867379373
1.5,-79.80586770708621,25.088287205121993,269.3604082151129,282.0521728141442,0,7.992480347098327,184.49250374910727,11.032659897946221,18.978680273837096,-0.023457883437032458,-0.015845441794333212,0.009261539988756331,0.030239405504113626,-0.11727312427893787,-0.07881975967709542,-0.1338590055553368,0.17383238143507096,2161503912760291.2,0.0,-4010859203056.091,0.2890421357222798,0.1505436493522652,0.04608101717830319,-0.9442816281558263,-0.11727312427893787,-0.07881975967709542,-0.1338590055553368
1.7,-79.8082129578459,25.086710804871377,269.3622850874611,282.0544886047212,0,8.031987549008603,185.08908923171782,11.032659428728135,18.978742836248703,-0.011726253798443057,-0.007882001253083361,0.00938436174095614,0.027456691453528692,0.05865814819294701,0.03981720270624926,0.0006141087609990403,0.16607769004730485,2161503912760291.2,0.0,-4010859203056.091,0.2791617532318945,0.27640350137915,0.08426162863444349,-0.9157345673816798,0.05865814819294701,0.03981720270624926,0.0006141087609990403
1.8,-79.81055751930714,25.08514257331269,269.3660495308367,282.05860757884204,0,8.051719642160014,185.38704932800138,11.03265848761729,18.978868317694555,-0.023445614612427314,-0.01568231558685794,0.03764443375587231,0.03156421193311214,-0.11719360813984246,-0.07800314333774572,0.28260072014916143,0.21226208277248637,2161503912760291.2,0.0,-4010859203056.091,0.2598169551177065,0.4281171890343925,0.12998133372987708,-0.8557544479396273,-0.11719360813984246,-0.07800314333774572,0.28260072014916143
2.0,-79.81290154976803,25.083582585028473,269.3678748981585,282.0608753376527,0,8.091017410571707,185.98223801800413,11.03265803127546,18.97892916327195,-0.011720152304448565,-0.007799941421087199,0.009126836609141266,0.028926495050813676,0.058627311539893756,0.03941187082885371,-0.14258798573365525,0.20568042517753576,2161503912760291.2,0.0,-4010859203056.091,0.27751721186626116,0.27149970601601425,0.08208532882879702,-0.9178965658189722,0.058627311539893756,0.03941187082885371,-0.14258798573365525
2.1,-79.81524481754039,25.082030844419943,269.3716740426079,282.0650285892977,0,8.110636540118279,186.27944015899064,11.032657081489347,18.979055801420262,-0.02343267772360489,-0.015517406085301375,0.03799144449374122,0.03501082264892128,-0.11712525419156315,-0.07717464664214169,0.2886460788459993,0.2565230871575759,2161503912760291.2,0.0,-4010859203056.091,0.2574421584295185,0.43104032196350545,0.1297817989971495,-0.8550347715466381,-0.11712525419156315,-0.07717464664214169,0.2886460788459993
2.3,-79.81758746095082,25.080487395706193,269.37344801765045,282.0672483877037,0,8.149689527246881,186.87299398884537,11.032656637995586,18.979114933921682,-0.011713217052147245,-0.007717243568752263,0.008869875212838009,0.02866000148623985,0.058597303357288306,0.03900081258274561,-0.14560784640451624,0.22579758461562408,2161503912760291.2,0.0,-4010859203056.091,0.2758457012600862,0.2664923041257636,0.07989793093242221,-0.9200583250918339,0.058597303357288306,0.03900081258274561,-0.14560784640451624
2.4,-79.81992923834193,25.078952262923472,269.3772704770579,282.07142499709164,0,8.169177957624848,187.16931929764107,11.032655682380735,18.979242349235264,-0.02341777391109188,-0.015351327827204372,0.038224594074449635,0.031767965176774035,-0.11704556858944623,-0.07634084258452103,0.293547188616116,0.23344185402051165,2161503912760291.2,0.0,-4010859203056.091,0.2551504028440454,0.43334531431151607,0.1293774017248523,-0.8546178083890488,-0.11704556858944623,-0.07634084258452103,0.293547188616116
2.61,-79.82227024807344,25.077425489924437,269.37884927492956,282.0734594630349,0,8.209882119087215,187.79054958741378,11.032655287681267,18.97929497583099,-0.011147665388139537,-0.007270347614455173,0.007518085103204917,0.027938160570751658,0.05842908820453497,0.038480858155948566,-0.14622147129164154,0.1921624360964021,2161503912760291.2,0.0,-4010859203056.091,0.27558478516887025,0.2437362886276361,0.07245675010798688,-0.9270359578534385,0.05842908820453497,0.038480858155948566,-0.14622147129164154
2.7,-79.82461037852333,25.075907120377384,269.37967286571427,282.074773230844,0,8.227259602034804,188.0563308041621,11.03265508178357,18.97932242885714,-0.026001449443274056,-0.016870772745036733,0.009151008718946358,0.03151271787482446,-0.16504204505704964,-0.10667139033979474,0.018143595730460396,0.18869525736690468,1.2370411542303343,0.0,0.09464043684639592,0.28090481129825035,0.13716700306814597,0.04060091303007068,-0.9490148924647717,-0.16504204505704964,-0.10667139033979474,0.018143595730460396
2.9,-79.82694952808893,25.07439716776552,269.38455660423193,282.0799649056018,0,8.26575001625199,188.64590342175129,11.032653860848942,18.979485220141065,-0.011695747827999996,-0.007549763059309111,0.024418692588312783,0.02560357622229593,0.07152850807637039,0.04660504842863817,0.07633841934683222,0.1397016007785845,8.302227766065199,0.0,-0.09417065807556924,0.24443805776466487,0.48187154015811934,0.14201804497272588,-0.8293857544014155,0.07152850807637039,0.04660504842863817,0.07633841934683222
3.0,-79.82928774518815,25.072895685386225,269.3865960456952,282.08244080240246,0,8.28490637377963,188.94011988577776,11.032653350988577,18.979553201523174,-0.023382170992221042,-0.015014823792967022,0.020394414632960416,0.03342596619350851,-0.11686423164221035,-0.07465060733657905,-0.04024277955352363,0.19010196567101478,26.97569945788026,0.0,-0.09555842004357942,0.2675676506631488,0.2987130104271767,0.08765119259395901,-0.911863673010935,-0.11686423164221035,-0.07465060733657905,-0.04024277955352363
3.21,-79.83162491826056,25.07140270635031,269.38911404573116,282.08537419919134,0,8.324922417642766,189.55666554280648,11.032652721488567,18.979637134857704,-0.011129395582881467,-0.007109423980553165,0.011990476361591262,0.032197990812591316,0.0583465495682837,0.03764476101149456,-0.040018753673186455,0.17890295651338942,13.768094757529378,0.0,0.09505021716492479,0.26158410548011174,0.3458449489176673,0.10103489979442229,-0.8954088318147397,0.0583465495682837,0.03764476101149456,-0.040018753673186455
3.3,-79.83396094576847,25.06991823358129,269.39315236040255,282.0897599332596,0,8.342017580393762,189.82033303863912,11.0326517119099,18.979771745346753,-0.0259558611989835,-0.01649414187797999,0.04487016301545238,0.03691174232417375,-0.1647385068455784,-0.10427464330474268,0.36532985170956855,0.20699839514288637,9438290522484.857,0.0,-2171182133794.4,0.24707700747397232,0.44763530764495874,0.1301970330905359,-0.8494847357673543,-0.1647385068455784,-0.10427464330474268,0.36532985170956855
3.5,-79.8362958861982,25.068442309814664,269.39759994622955,282.0945369861987,0,8.379771614373198,190.40498125354344,11.032650600013442,18.97991999820765,-0.011674702148667383,-0.007379618833134309,0.02223792913497389,0.03541558038427076,0.07140579525158053,0.04557261522422837,-0.11316116940239235,0.20283039823249185,9438290522484.857,0.0,-2171182133794.4,0.24307260997301758,0.4668276273524386,0.1351715865909243,-0.8394738321114543,0.07140579525158053,0.04557261522422837,-0.11316116940239235
3.6,-79.83862957806112,25.06697498759719,269.4019709602113,282.0992413410185,0,8.398568176152292,190.69661818922106,11.032649507259947,18.980065698673712,-0.023336918629155413,-0.014673222174721431,0.04371013981767642,0.0424234405679572,-0.1166221648048802,-0.07293603341587115,0.21472210682702514,0.23858622799542423,9438290522484.857,0.0,-2171182133794.4,0.24252924646047727,0.4640934141251675,0.1337776117326085,-0.8413681822936248,-0.1166221648048802,-0.07293603341587115,0.21472210682702514
3.8,-79.84096208989477,25.065516289286165,269.4066148598472,282.1042067473127,0,8.435907087424438,191.2784529096354,11.032648346285038,18.98022049532824,-0.011662559168286195,-0.007293491555131491,0.023219498179400975,0.03705002599874458,0.05837179730434617,0.03689865309794975,-0.10245320819137738,0.17998035367902213,9438290522484.857,0.0,-2171182133794.4,0.23963053476791274,0.4759289244972976,0.13656435441403844,-0.8351161851725583,0.05837179730434617,0.03689865309794975,-0.10245320819137738
3.9,-79.84329326026413,25.064066247048707,269.4111340031583,282.10905341790914,0,8.454488170277905,191.56862483514698,11.03264721649921,18.98037113343861,-0.02331170369359368,-0.014500422374581478,0.04519143311085823,0.0416170227833242,-0.11649144525307473,-0.0720693081944998,0.21971934931457235,0.20152892940073314,9438290522484.857,0.0,-2171182133794.4,0.23937302384692533,0.47145170469144365,0.13466391756327023,-0.8380330989313155,-0.11649144525307473,-0.0720693081944998,0.21971934931457235
4.11,-79.84562314776258,25.062624892861052,269.4162250487086,282.1144466734577,0,8.493214749186563,192.17629692654444,11.032645943737823,18.980540834956955,-0.011094702373560202,-0.006863591369785742,0.024243074049189996,0.038463036463563346,0.058176196762064064,0.03636586192759867,-0.09975409076984854,0.16806895777250105,9438290522484.857,0.0,-2171182133794.4,0.23476619924488187,0.49334205789479546,0.14026440006605723,-0.8257265550279642,0.058176196762064064,0.03636586192759867,-0.09975409076984854
4.2,-79.84795162101311,25.06119225850785,269.41968685562665,282.1182844143099,0,8.509717774675407,192.43600418538512,11.032645078286093,18.98065622852089,-0.025871925005876407,-0.01591815948000572,0.03846452131155179,0.042398274489061874,-0.16419136258129144,-0.10060631233577769,0.1580160806929091,0.17209391634854082,9438290522484.857,0.0,-2171182133794.4,0.24505477436859013,0.4195454325686437,0.11872984128420781,-0.8659289880576674,-0.16419136258129144,-0.10060631233577769,0.1580160806929091
4.4,-79.8502786186695,25.059768395581465,269.4263298836264,282.12516056190384,0,8.546142228968263,193.01151495687571,11.032643417529092,18.980877662787545,-0.011634988281983272,-0.00711931463193593,0.03321513999878786,0.038504061900909305,0.07118468361946562,0.04399422424034892,-0.026246906563819627,0.13581905773008757,9438290522484.857,0.0,-2171182133794.4,0.22520030204090064,0.5359744633555871,0.15096848167998886,-0.7995153007482824,0.07118468361946562,0.04399422424034892,-0.026246906563819627
4.5,-79.8526041294174,25.058353265481262,269.4301199930287,282.129312575076,0,8.564232268152749,193.2984092997603,11.032642470001742,18.981003999767623,-0.02325510747894563,-0.014151301002023381,0.03790109402302746,0.043896579424291725,-0.11620119196962399,-0.07031986370087477,0.04685954024239612,0.15466580035889368,9438290522484.857,0.0,-2171182133794.4,0.2401845182507649,0.4394731279271496,0.12320568482324223,-0.8567351552550013,-0.11620119196962399,-0.07031986370087477,0.04685954024239612
4.7,-79.85492809197545,25.056946969412948,269.43622404478214,282.1356747373727,0,8.600134811205958,193.87041214631236,11.032640943988804,18.981207468159404,-0.0116198127902578,-0.007031480341570522,0.030520258767126024,0.04140231489344083,0.0581764734434391,0.03559910330226426,-0.036904176279507137,0.12387449277505069,9438290522484.857,0.0,-2171182133794.4,0.22537576405385887,0.5246777212255059,0.14639063446201173,-0.8077678106786377,0.0581764734434391,0.03559910330226426,-0.036904176279507137
4.8,-79.85725043509643,25.055549528387846,269.4409515004844,282.14072260967504,0,8.61796786608781,194.1554952277253,11.032639762124878,18.981365050016148,-0.023223431209800166,-0.013974410251016473,0.04727455702266087,0.04511056941950794,-0.11603618419542407,-0.06942929909445975,0.16754298255534902,0.1442431359805907,9438290522484.857,0.0,-2171182133794.4,0.23150144662124103,0.4830331434382793,0.134124473623957,-0.8337245876951836,-0.11603618419542407,-0.06942929909445975,0.16754298255534902
5.0,-79.8595711475684,25.05416095322224,269.44774102240336,282.147740070729,0,8.65332848743244,194.72376135582684,11.032638064744399,18.981591367413447,-0.011603562359852038,-0.006942875828030986,0.033947609594804334,0.04394177549636326,0.05809934424974059,0.0351576721149274,-0.06663473713928261,0.1316162073808119,9438290522484.857,0.0,-2171182133794.4,0.2204433825649585,0.540955298336661,0.14948027883199036,-0.797764204840706,0.05809934424974059,0.0351576721149274,-0.06663473713928261
5.1,-79.86189012821583,25.052781294536675,269.45247017349755,282.15279021842525,0,8.67087919550079,195.00691914633666,11.032636882456625,18.981749005783254,-0.023189806474306435,-0.013796586855647823,0.04729151094181833,0.04815950693617379,-0.11586244114454437,-0.06853711027616861,0.1334390134701404,0.14825454888623227,9438290522484.857,0.0,-2171182133794.4,0.22927704198469875,0.4842301952084614,0.13315277351988242,-0.8338006326281391,-0.11586244114454437,-0.06853711027616861,0.1334390134701404
5.3,-79.86420739590072,25.051410552755293,269.4601775174376,282.1606848258402,0,8.70566845758407,195.57122125711322,11.03263495562064,18.982005917247918,-0.011586338424436338,-0.0068537089069131635,0.03853671970034608,0.04596982574239039,0.05801734024935043,0.03471438974367327,-0.04377395620736121,0.1197072519208261,9438290522484.857,0.0,-2171182133794.4,0.2152034923655894,0.5583623916539507,0.15278074031179817,-0.7864966254536078,0.05801734024935043,0.03471438974367327,-0.04377395620736121
5.4,-79.8665228295237,25.05004880810517,269.46491891862695,282.16574728692615,0,8.722921172492494,195.85234049737906,11.032633770270342,18.982163963954232,-0.023154336229822423,-0.013617446501221691,0.047414011893351676,0.05681211496861727,-0.11567997805386022,-0.06763737594308492,0.08877292193005552,0.2057074506240581,9438290522484.857,0.0,-2171182133794.4,0.2269666400710496,0.4858389272653712,0.13227493321014067,-0.833636625330692,-0.11567997805386022,-0.06763737594308492,0.08877292193005552
5.61,-79.86883642802519,25.048696030615627,269.4736617422226,282.1746313508049,0,8.758802992017447,196.44038273173368,11.032631584564443,18.98245539140742,-0.011017135721369004,-0.006441797569255501,0.04163249331256902,0.053256790243931096,0.05779619289739724,0.03416975681888662,-0.027531040860869802,0.22192608261429245,-687768279704.0792,0.0,1138555485647.999,0.2102458262405972,0.5738404510837897,0.155452714105794,-0.7761045566967789,0.05779619289739724,0.03416975681888662,-0.027531040860869802
5.7,-79.87114810038653,25.04735231011759,269.4813794541554,282.1825367189393,0,8.774077892009492,196.69142112358423,11.03262965513646,18.982712648471846,-0.02568524845937902,-0.014930227755982652,0.08575235480887197,0.06427842352411978,-0.16297903042233375,-0.09431589096363516,0.4902206832922558,0.32482304801519424,-687768279704.0792,0.0,1138555485647.999,0.21200768167780462,0.5599472534335367,0.15091985138300748,-0.786597110813644,-0.16297903042233375,-0.09431589096363516,0.4902206832922558
5.9,-79.87345783563111,25.046017636242905,269.48821142115156,282.1895964790811,0,8.807604160037084,197.24711973558604,11.032627947144713,18.982940380705053,-0.011548676222901112,-0.006673369373419996,0.034159834980869136,0.06659720786842113,0.07068286118238946,0.04128429191281325,-0.25796259914001396,0.3231685323429015,-687768279704.0792,0.0,1138555485647.999,0.213867856163744,0.5447930045554227,0.14608562219063215,-0.7975713844393962,0.07068286118238946,0.04128429191281325,-0.25796259914001396
6.0,-79.87576553282544,25.044692038423726,269.4974277107527,282.1989334874722,0,8.824259223897597,197.52382540388928,11.032625643072311,18.983247590358424,-0.023076971943254504,-0.013255978191786302,0.09216289601113237,0.06874729561969826,-0.11528295720353433,-0.0658260881836633,0.5800306103026344,0.3522624120306913,-687768279704.0792,0.0,1138555485647.999,0.20599898939716588,0.5807600217716995,0.15493057905012578,-0.7721908631642013,-0.11528295720353433,-0.0658260881836633,0.5800306103026344
6.2,-79.87807116108033,25.043375565891825,269.5103759913361,282.2118347609474,0,8.85717408098797,198.07488797572614,11.032622406002165,18.983679199711204,-0.011528141274439452,-0.006582362659504065,0.06474140291714997,0.06533996654621045,0.057744153344075205,0.03336807766141116,-0.13710746546991187,0.27565188372278887,-687768279704.0792,0.0,1138555485647.999,0.1987599119739875,0.6109639058866662,0.16214020952112598,-0.7489513706191124,0.057744153344075205,0.03336807766141116,-0.13710746546991187
6.3,-79.88037469955201,25.042068237677967,269.51511563213575,282.21689708088854,0,8.873440672205897,198.34922038768065,11.032621221091965,18.98383718773786,-0.02303538471679198,-0.013073282138584877,0.04739640799641637,0.06881957547960846,-0.11507243442352567,-0.06490919479080835,-0.17344994920733664,0.2785715432364478,-687768279704.0792,0.0,1138555485647.999,0.2201500213161361,0.4892879242123877,0.12916687221609544,-0.8339347782988478,-0.11507243442352567,-0.06490919479080835,-0.17344994920733664
6.5,-79.8826760674432,25.04077006261128,269.5296202032623,282.23128506233934,0,8.905669013504703,198.89542650167127,11.032617594949183,18.984320673442078,-0.011506839455961416,-0.006490875333433615,0.07252285563282605,0.06547723111309567,0.057642726304152764,0.03291203402575628,0.1256322381820483,0.19317967701322053,-687768279704.0792,0.0,1138555485647.999,0.19502457347590674,0.6196106490154636,0.16270695502370303,-0.7426806219056017,0.057642726304152764,0.03291203402575628,0.1256322381820483
6.6,-79.88497523400429,25.039481099318582,269.5343411757234,282.2363299699241,0,8.921577115704102,199.16727592796997,11.03261641470607,18.98447803919078,-0.022991665610874262,-0.012889632926977913,0.0472097246108662,0.0630573529539593,-0.11484826154912887,-0.0639875759354432,-0.25313131021959945,0.22984854818769668,-687768279704.0792,0.0,1138555485647.999,0.21793921860954385,0.48978626330269615,0.12792646674351285,-0.8344140053824387,-0.11484826154912887,-0.0639875759354432,-0.25313131021959945
6.8,-79.88727209853444,25.038201376223792,269.5499648214441,282.25178707449027,0,8.953085696251378,199.70840710895135,11.032612508794639,18.98499882738147,-0.011484322650758817,-0.006398615473948149,0.0781182286036141,0.0696623264537535,0.05753671480057718,0.03245508726514879,0.15454251996373938,0.22753474052781236,-687768279704.0792,0.0,1138555485647.999,0.1919779233255606,0.6250261976406734,0.1623694502344793,-0.739001279328392,0.05753671480057718,0.03245508726514879,0.15454251996373938
6.9,-79.88956669038265,25.036930911547287,269.5546838132865,282.2568304596499,0,8.9686212025768,199.9776648134484,11.032611329046677,18.98515612710955,-0.02294591848212223,-0.012704646765051496,0.04718991842366879,0.08889593015768926,-0.11461595831363353,-0.06306031291103313,-0.30928310179945145,0.3642484075978937,-687768279704.0792,0.0,1138555485647.999,0.21560571748527338,0.4909263286803969,0.12683570754166917,-0.8345167569848142,-0.11461595831363353,-0.06306031291103313,-0.30928310179945145
7.1,-79.891858918949,25.03566972330526,269.57195072507045,282.27385726938917,0,8.999387049293778,200.51350461616315,11.032607012318731,18.985731690835685,-0.011461142831734645,-0.00630594121012964,0.08633455891981642,0.08550319953286797,0.05742387825193813,0.03199352777460939,0.19572320248073885,0.440961911317732,-687768279704.0792,0.0,1138555485647.999,0.18868890198001975,0.6314817758228095,0.16225250444401584,-0.7343714250125,0.05742387825193813,0.03199352777460939,0.19572320248073885
7.2,-79.89414868368559,25.034417859309148,269.5887375315929,282.2904257592231,0,9.014656719258877,200.78006289936673,11.032602815617102,18.986291251053096,-0.02289764736588028,-0.012518639961136491,0.16786806522475128,0.10669236802137849,-0.11436504534145575,-0.062126987510068184,0.8153350630493442,0.7056440396901889,-687768279704.0792,0.0,1138555485647.999,0.18801651041125977,0.6302840150882247,0.1610462873766144,-0.7358369013981617,-0.11436504534145575,-0.062126987510068184,0.8153350630493442
7.4,-79.8964360540978,25.033175337164963,269.5956872086481,282.29759992446094,0,9.04453269534277,201.31039699503822,11.032601078197837,18.98652290695494,-0.011436852061095227,-0.006212610720925932,0.034748385275804566,0.11653894334959247,0.05730397652392522,0.03153014620105277,-0.665598399744733,0.7165691244881759,-687768279704.0792,0.0,1138555485647.999,0.20237071979185955,0.5522093443667534,0.14030099425867162,-0.7965089847421642,0.05730397652392522,0.03153014620105277,-0.665598399744733
7.5,-79.89872084974537,25.031942174272725,269.6140205330471,282.31564567065,0,9.05941772537714,201.57414923718915,11.032596494866738,18.987134017768238,-0.022847956475686795,-0.012331628922375203,0.18333324399009207,0.11106176194908424,-0.11411104414591608,-0.06119018201449292,1.4858485871428804,0.7919065941224834,49888064979008.07,0.0,-4257245099.3117347,0.18494536421070956,0.6356871828962839,0.1605990668869824,-0.7320552967320059,-0.11411104414591608,-0.06119018201449292,1.4858485871428804
7.71,-79.90100309024345,25.030718417825845,269.63554188263794,282.33673619577627,0,9.09006102104583,202.1248939586155,11.03259111452934,18.987851396087933,-0.01086781189559902,-0.005827411651808456,0.1024826170992453,0.10014417075725024,0.05704830752422751,0.03097246319317499,-0.3850029851945085,0.6907210547885004,3048902492685.445,0.0,-1216404159819.2554,0.1822650653852395,0.6435343624154011,0.16164813154545807,-0.725612053302989,0.05704830752422751,0.03097246319317499,-0.3850029851945085
7.8,-79.90328274526378,25.029504084810522,269.6402773363248,282.34179610927475,0,9.10296161176407,202.35960620296817,11.03258993066592,18.98800924454416,-0.02532950022590011,-0.013492589059143594,0.052616152076249596,0.10246563003891533,-0.16068542589223458,-0.08516863785927944,-0.554071833588842,0.6889357803634708,-6.634967823038229,0.0,-0.16711230118405637,0.2083441536083678,0.49525887836656907,0.12368143608982667,-0.8342746906283679,-0.16068542589223458,-0.08516863785927944,-0.554071833588842
8.0,-79.9055597045358,25.028299182005142,269.6631922740874,282.36421780935797,0,9.13134410453992,202.87829479190856,11.032584201931478,18.988773075802914,-0.011384796360118788,-0.006024514026901068,0.11457468881303602,0.09096404863570093,0.06972351932890654,0.037340375161212594,0.30979268368393187,0.47987011576079264,-6.634967823038229,0.0,-0.16711230118405637,0.17965067650531633,0.6468027403767173,0.16058594172805976,-0.723591048031734,0.06972351932890654,0.037340375161212594,0.30979268368393187
8.11,-79.90783398784768,25.02710377597971,269.667894577001,282.3692462390967,0,9.146631566859252,203.16184574156526,11.03258302635575,18.988929819233366,-0.020675302835245168,-0.010867327503919253,0.04274820830532526,0.08005015193477506,-0.08445914977387661,-0.04402557706380191,-0.6529680046155557,0.5558834031517688,-6.634967823038229,0.0,-0.16711230118405637,0.20608617311929917,0.4952917573319548,0.12223871075306035,-0.835028300096168,-0.08445914977387661,-0.04402557706380191,-0.6529680046155557
8.3,-79.91010545504753,25.025917873095246,269.6920132272551,282.3928177517935,0,9.172782874492476,203.64867307169013,11.032576996693185,18.989733774241838,-0.011955090525511318,-0.006241594128765254,0.12694026449516405,0.0948618427790866,0.0458958542617568,0.024345965132389305,0.4431160852096748,0.5351504517178121,-6.634967823038229,0.0,-0.16711230118405637,0.17715593119849748,0.6494535157758093,0.15933158144389808,-0.7221075778872702,0.0458958542617568,0.024345965132389305,0.4431160852096748
8.41,-79.91237415604444,25.024741499503193,269.69671540817285,282.39784618925404,0,9.187587574809584,203.92879124602558,11.032575821147956,18.98989051360576,-0.02062455451734164,-0.010694305382295245,0.04274709925249993,0.11884518992943952,-0.07881330901663972,-0.04047919321390922,-0.7653924112969506,0.6736656852498392,-6.634967823038229,0.0,-0.16711230118405637,0.20362153079726436,0.49656820129031093,0.12108598173621,-0.8350428005138791,-0.07881330901663972,-0.04047919321390922,-0.7653924112969506
8.6,-79.91463991080958,25.02357467114487,269.72204610423046,282.4225754362589,0,9.212905586832859,204.40959219755445,11.032569488473943,18.990734870141015,-0.011925025079724642,-0.006141201885904944,0.13331945293478084,0.11653479132164501,0.04578699704008959,0.023963702612580597,0.47669659832779554,0.74100042986625,-6.634967823038229,0.0,-0.16711230118405637,0.17469489013064093,0.6519070879075072,0.15800056481973115,-0.7207875315339763,0.04578699704008959,0.023963702612580597,0.47669659832779554
8.7,-79.91690276937739,25.02241742375088,269.74542970107586,282.4454452927089,0,9.226112171061768,204.6610771556343,11.03256364257473,18.991514323369195,-0.02262858567803513,-0.011572473939907055,0.23383596845406002,0.13190281958819217,-0.10703560598310527,-0.0543127205400213,1.0051651551927954,0.9329076922335287,627214149416.3721,0.0,-630202618211.2009,0.17430129091665744,0.6492432262562576,0.15638274527561474,-0.7236343898165805,-0.10703560598310527,-0.0543127205400213,1.0051651551927954
8.9,-79.91916272184653,25.021269782840555,269.7524163855476,282.4526556036401,0,9.251667658909124,205.16074781199663,11.032561895903612,18.991747212851585,-0.011299762345728876,-0.005738204551626294,0.034933422358562706,0.15286053268107277,0.05664411666153098,0.029171346941403647,-0.9945127304774813,0.8355810250542127,11.263809718893132,0.0,-0.060879300322474704,0.19061644770566297,0.5582367895635756,0.13362004612449954,-0.7963559128401778,0.05664411666153098,0.029171346941403647,-0.9945127304774813
9.02,-79.92141959838116,25.020131783721368,269.77682524569383,282.47650476586705,0,9.266905376620768,205.45840883930293,11.032555793688577,18.992560841523126,-0.01880730445525589,-0.009483325993227789,0.2034071678854364,0.13660897522697424,-0.06256285091272552,-0.031209345346679327,1.4039478793906233,0.9537258358834976,4.256889027547464,0.0,0.11173124095856224,0.17184393755695454,0.6515250285639727,0.154968238412501,-0.7224746662430196,-0.06256285091272552,-0.031209345346679327,1.4039478793906233
9.2,-79.92367339921188,25.0190034314884,269.8043293707909,282.5033101568032,0,9.289246533780641,205.90183946278617,11.032548917657302,18.99347764569303,-0.01252111572619522,-0.0062686235164872315,0.15280069498386561,0.1181387979182249,0.034923270717003775,0.017859458204114238,-0.28114707167539366,0.8480406142390129,568649046027.6887,0.0,-656460763479.4525,0.16989605775481315,0.6559986597448819,0.15503868966097356,-0.7188630555818684,0.034923270717003775,0.017859458204114238,-0.28114707167539366
9.3,-79.92592413463692,25.017884771023787,269.8089653513622,282.5082754383746,0,9.301329535281177,206.14658222417873,11.03254775866216,18.99363217837874,-0.022507354250364778,-0.011186604646127148,0.046359805712653974,0.12129219287778048,-0.09986238524169416,-0.049179811296398465,-1.0644088927121014,0.8416563968150845,562869411554.3312,0.0,3570760363.5390625,0.1964164941100911,0.4980150315033873,0.11693810965676339,-0.8364969024139202,-0.09986238524169416,-0.049179811296398465,-1.0644088927121014
9.5,-79.92817166502319,25.01677581699616,269.83742767919597,282.53599606867186,0,9.325205286370707,206.63257072314389,11.0325406430802,18.994580922639866,-0.011237651931352883,-0.005544770138143937,0.1423116391688955,0.10881846871496499,0.05634851159505967,0.02820917253991615,0.4797591672812094,0.6562648522000385,562869411554.0256,0.0,3570760363.717326,0.16753764341618776,0.6577239325577351,0.15343350597439334,-0.7181841865592308,0.05634851159505967,0.02820917253991615,0.4797591672812094
9.6,-79.93041603080742,25.015676593860093,269.84209334736454,282.5409896358303,0,9.336804070075642,206.87379486130766,11.032539476663159,18.99473644491215,-0.022443657842359323,-0.010992231360660338,0.04665668168570408,0.08771211925704167,-0.1120600591100648,-0.054474612225164205,-0.9565495748319176,0.7810249600715681,528955560295.959,0.0,-664578967841.4727,0.1936847919477785,0.5004660800249273,0.11597524904632318,-0.8358047892428423,-0.1120600591100648,-0.054474612225164205,-0.9565495748319176
9.8,-79.93265710249725,25.014587115855587,269.87040915024176,282.56857039479996,0,9.359698832486359,207.35264931030852,11.032532397712439,18.995680305008058,-0.011205358449117794,-0.005447390022528225,0.14157901438608103,0.1053283014191652,0.05619149696620735,0.02772420669066042,0.4746116635018822,0.6655311149270436,528955560302.93243,0.0,-664578967841.6517,0.16542794769974042,0.6581892856080733,0.1515092221197469,-0.7186552817890196,0.05619149696620735,0.02772420669066042,0.4746116635018822
9.91,-79.93489490067225,25.013507427007525,269.87505668352196,282.5735465264161,0,9.371899067548618,207.61395197282562,11.032531235829119,18.995835222784066,-0.020343619772750843,-0.009815353164199842,0.042250302547328054,0.12710553877672098,-0.08307510294211906,-0.039708755833378545,-0.9029882894432135,0.7906539965745528,-39693485730.606514,0.0,-8118204362.322609,0.191173809070447,0.5011369778725491,0.11457455474972421,-0.8361740103221141,-0.08307510294211906,-0.039708755833378545,-0.9029882894432135
10.11,-79.93712929598509,25.01243754112513,269.90311064423724,282.6008772231026,0,9.393757670112091,208.08523338561238,11.03252422233894,18.996770354807907,-0.011171976564199366,-0.005349429411971604,0.14026980357641655,0.12423569317430487,0.04585821604275755,0.02232961876114127,0.4900975051454442,0.8235372366195088,-86441219291.38152,0.0,-1348624048164.2727,0.1633173647927951,0.6585276268328686,0.14953099622150598,-0.7192421596541817,0.04585821604275755,0.02232961876114127,0.4900975051454442
10.21,-79.93936021916257,25.01137748180146,269.92816403077563,282.62534219848635,0,9.404543563826579,208.31900697273568,11.032517958992306,18.997605467692523,-0.02230923177478385,-0.010600593236702443,0.25053386538388267,0.14562515994152864,-0.11137255210584326,-0.05251163824730764,1.1026406180746455,1.1514739929012607,-86441219298.56764,0.0,-1348624048164.2693,0.16300006719636517,0.6550743495081234,0.14772041804456498,-0.7228327972658882,-0.11137255210584326,-0.05251163824730764,1.1026406180746455
10.4,-79.94158777100675,25.010327272412873,269.93506794289914,282.6324730652165,0,9.42415913391567,208.75970075385504,11.032516233014276,18.997835598096636,-0.011723957074662568,-0.005527417834671463,0.0363363795973951,0.16201131983597605,0.05571197210590163,0.026700923168584172,-1.1273551883499375,1.0891759170034607,44124130010575.18,0.0,8414861018.580664,0.1785831475291846,0.562281512530205,0.12590206898204398,-0.7975564112408319,0.05571197210590163,0.026700923168584172,-1.1273551883499375
10.5,-79.94381176239608,25.00928693611852,269.959853981761,282.65668262754417,0,9.434444991005645,208.9897959256961,11.03251003650456,18.998661799392032,-0.022239913893287246,-0.01040336294352077,0.24786038861862014,0.14419801344453972,-0.10515956818624715,-0.04875945108849324,2.1152400902122577,1.1596451442890388,44124130010575.18,0.0,8414861018.580664,0.1608489806140142,0.6553490100356935,0.14570265184111564,-0.7234749599862705,-0.10515956818624715,-0.04875945108849324,2.1152400902122577
10.7,-79.94603220428625,25.008256505859826,269.9857063499236,282.6819106202921,0,9.4542580720486,209.4461108084199,11.03250357341252,18.999523544997455,-0.011102209450868412,-0.0051521512934727025,0.1292618408129447,0.11953753220725494,0.05568852221209437,0.026256058250240428,-0.5929927390283793,1.0208878862425201,44124130010575.18,0.0,8414861018.580664,0.15943130912360842,0.6571363895947353,0.14504832389988576,-0.72229800420281,0.05568852221209437,0.026256058250240428,-0.5929927390283793
10.8,-79.94824907771167,25.007235984359998,269.99026965137546,282.68680564998385,0,9.46381831028365,209.6723102387163,11.032502432587156,18.99967565504585,-0.022168734254108497,-0.010205214998286603,0.045633014518670544,0.12199376438626894,-0.11066524803239927,-0.05053063704813829,-0.8362882629427296,0.9631567217222823,44124130010575.18,0.0,8414861018.580664,0.18360246487042833,0.5020914407062403,0.11001827699342895,-0.8379082878158159,-0.11066524803239927,-0.05053063704813829,-0.8362882629427296
11.0,-79.95046226378615,25.006225404123505,270.0158433915489,282.7117673667023,0,9.48257315403836,210.120742811271,11.032496039152113,19.00052811305163,-0.0110659303724248,-0.00505290118246295,0.1278687008672823,0.09523003478910999,0.055514019408418686,0.025761569079118356,0.41117843174306024,0.6072120286239057,44124130010575.18,0.0,8414861018.580664,0.1572430395914566,0.6574180184463416,0.14299348987413232,-0.7229308662491466,0.055514019408418686,0.025761569079118356,0.41117843174306024
11.1,-79.95267177370421,25.0052247874356,270.02031377733726,282.7165733430489,0,9.491600509133468,210.34295602326654,11.032494921555665,19.000677125911242,-0.022095099180603563,-0.010006166879037472,0.04470385788351921,0.07866029068101474,-0.11029168808178803,-0.04953265696574539,-0.8316484298376339,0.6387737187890512,44124130010575.18,0.0,8414861018.580664,0.18133605429002506,0.4999028381135559,0.10791961940167344,-0.8399807995476652,-0.11029168808178803,-0.04953265696574539,-0.8316484298376339
11.31,-79.95487750874214,25.004234176361816,270.0443962171112,282.7401105121954,0,9.51012075599029,210.80520245661052,11.032488900945722,19.00147987390371,-0.010503500180632121,-0.004717195589453194,0.11467828463791839,0.09601613396561155,0.055198090476054264,0.02518557756944884,0.33321155597332813,0.5732104078627035,44124130010575.18,0.0,8414861018.580664,0.15535656917591711,0.6559709827921921,0.14053927743049532,-0.7251311037652767,0.055198090476054264,0.02518557756944884,0.33321155597332813
11.41,-79.95707947025898,25.00325356274749,270.0484300207368,282.7444991556885,0,9.518585572674432,211.0232032194721,11.032487892494816,19.00161433402456,-0.022019615168318376,-0.009806136143275558,0.04033803625588931,0.11670451971079092,-0.11516114987686296,-0.05088940553822382,-0.7434024838202934,0.6768381716192392,44124130010575.18,0.0,8414861018.580664,0.18087094174164955,0.4826914503846091,0.10262191028217152,-0.8507428575598676,-0.11516114987686296,-0.05088940553822382,-0.7434024838202934
11.6,-79.95927749969762,25.002282968217266,270.0746404995911,282.7700685236679,0,9.534352622539444,211.43359810560466,11.032481339875101,19.00248801665304,-0.011568575992869617,-0.005108392264331424,0.1379498887068194,0.11303457208391728,0.055005469344467296,0.02472496778391656,0.5137465918470019,0.6997935402720301,44124130010575.18,0.0,8414861018.580664,0.1524764553171055,0.6595420082320705,0.1391378731174798,-0.7227696190457109,0.055005469344467296,0.02472496778391656,0.5137465918470019
11.7,-79.96147164858597,25.001322424174635,270.0977052665796,282.79263332243517,0,9.542478248138067,211.64757386401845,11.032475573683355,19.003256842219322,-0.02194148888349908,-0.009605440426305768,0.23064766988511648,0.13897916722892464,-0.10372912890629502,-0.0449704816197436,0.9269778117829741,1.1067699979518397,44124130010575.18,0.0,8414861018.580664,0.1521553631506633,0.655391648404681,0.13717282282394533,-0.7269760307908338,-0.10372912890629502,-0.0449704816197436,0.9269778117829741
11.91,-79.96366191853791,25.000371951801448,270.10410133615255,282.79927755169604,0,9.558521339111604,212.09233335092716,11.032473974665962,19.003470044538417,-0.010429856913993849,-0.0045260589199392146,0.030457474156805893,0.15520885883481755,0.054817295092881836,0.024187530982697776,-0.9532866463252847,1.0728424402431145,44124130010575.18,0.0,8414861018.580664,0.16700046654828543,0.558303450305561,0.11591654716254197,-0.804345358439691,0.054817295092881836,0.024187530982697776,-0.9532866463252847
12.0,-79.96584811125442,24.999431572057468,270.12602052432106,282.8207478375378,0,9.565338377177664,212.28102409047852,11.032468494868919,19.004200684144035,-0.024291030183418508,-0.01044866382200226,0.2435465352056734,0.13216131212718757,-0.1540130363269409,-0.06580672113403395,2.3676562338763096,1.0769103588495978,-99014215382097.72,0.0,-736397306947.9941,0.15013594797276025,0.6541262740899157,0.13471735819426198,-0.7289919396486657,-0.1540130363269409,-0.06580672113403395,2.3676562338763096
12.2,-79.9680302885246,24.998501305679877,270.1515384486735,282.845655193679,0,9.57971409712487,212.696166348446,11.032462115387832,19.00505128162245,-0.010910886350927778,-0.004651331887952653,0.12758962176207023,0.13825255740681203,0.06690071916245388,0.028986659670248136,-0.579784567218018,1.3731457799067077,-99014215382097.72,0.0,-736397306947.9941,0.14791476284051372,0.6599598876970538,0.13480210021079972,-0.7241564494938122,0.06690071916245388,0.028986659670248136,-0.579784567218018
12.4,-79.97020841222678,24.99758117318286,270.1555518283917,282.85002294804167,0,9.593123517182995,213.10549604073105,11.032461112042903,19.00518506094639,-0.010890618510899173,-0.004600662485092475,0.020066898591153296,0.1412445853196526,0.00010133920014302378,0.0002533470143008891,-0.5376136158545818,1.622176316142053,-99014215382097.72,0.0,-736397306947.9941,0.17236196287048466,0.48630523314503354,0.09850367188917712,-0.8509380709520155,0.00010133920014302378,0.0002533470143008891,-0.5376136158545818
12.5,-79.97238231432958,24.99667119485711,270.18168018426684,282.87551292228625,0,9.599786040553841,213.30795839382168,11.032454579953933,19.00605600614223,-0.02173902102796895,-0.009099783257475768,0.26128355875130277,0.11785025956916488,-0.10848402517069816,-0.044991207723833096,2.4121666016015033,1.2344817458574369,-99014215382097.72,0.0,-736397306947.9941,0.1453631329596361,0.6613904387163644,0.13284204721798432,-0.7237300861796951,-0.10848402517069816,-0.044991207723833096,2.4121666016015033
12.6,-79.9745520968929,24.99577139076942,270.1858053387151,282.87998687968064,0,9.606038736568184,213.50894039868865,11.032453548665321,19.006193511290505,-0.02169782563314023,-0.008998040876910838,0.04125154448274785,0.10172408914607464,0.0004119539482871929,0.0010174238056493078,-2.200320142685557,1.2913463113412327,-99014215382097.72,0.0,-736397306947.9941,0.16883665875992443,0.492903824772979,0.09815055067465951,-0.8478835247751983,0.0004119539482871929,0.0010174238056493078,-2.200320142685557
12.8,-79.97671758206906,24.994881760762212,270.2112993157935,282.90487049071083,0,9.618144713736385,213.90642769994,11.03244717517105,19.00704331052645,-0.010827425880819362,-0.0044481500360404646,0.12746988539191695,0.12303957686094631,0.05435199876160406,0.022749454204351746,0.4310917045458432,1.2725613561779672,-99014215382097.72,0.0,-736397306947.9941,0.14306915566076894,0.6612402268370889,0.13053312256256033,-0.7247438740858851,0.05435199876160406,0.022749454204351746,0.4310917045458432
12.9,-79.97887884210382,24.994002364453095,270.2154377412153,282.9093565238004,0,9.623824505824299,214.10291533028746,11.032446140564696,19.00718125804051,-0.021612600347680276,-0.0087939630911649,0.04138425421786011,0.11859155895580323,-0.10785174466860953,-0.04345813055124451,-0.8608563117405715,1.010042719933406,-99014215382097.72,0.0,-736397306947.9941,0.16579871357360304,0.4950275835078344,0.09685563820420616,-0.8473945146694002,-0.10785174466860953,-0.04345813055124451,-0.8608563117405715
13.1,-79.98103571933746,24.993133201234468,270.2413070423655,282.9345981210475,0,9.634782973649124,214.491334887058,11.032439673239407,19.00804356807885,-0.010784386168154508,-0.004345816093138681,0.12934650575118714,0.1158154252135755,0.05414107089762903,0.022240734990131173,0.43981125766663676,0.7777450705984625,-99014215382097.72,0.0,-736397306947.9941,0.14050453454079578,0.6623729468202217,0.12844096700494456,-0.7245850350987141,0.05414107089762903,0.022240734990131173,0.43981125766663676
13.2,-79.98318819620575,24.99227428027306,270.265205348316,282.95795692946587,0,9.64008225371969,214.6832495504536,11.03243369866292,19.0088401782772,-0.021524768682894622,-0.008589209614058322,0.23898305950467688,0.13466327362214697,-0.10740382514740153,-0.042433935209196555,1.0963655375349013,1.03608440576568,-99014215382097.72,0.0,-736397306947.9941,0.13972249529868502,0.6600407593679963,0.12682844752885486,-0.7271439782999294,-0.10740382514740153,-0.042433935209196555,1.0963655375349013
13.4,-79.98533633524107,24.991425640509526,270.2715137898406,282.9645146488491,0,9.649684221289045,215.06244600009956,11.032432121552539,19.009050459661353,-0.010740695176636393,-0.004243198817679405,0.03154220762297638,0.15293172303910557,0.05392036753129086,0.021730053981894468,-1.037204259408497,0.9501433444801594,-99014215382097.72,0.0,-736397306947.9941,0.15329317063745654,0.5626909817178872,0.10711972298890808,-0.8052362559373836,0.05392036753129086,0.021730053981894468,-1.037204259408497
13.51,-79.98747988907351,24.990587300658014,270.2958521994301,282.9882932364039,0,9.654842275225526,215.26835139763472,11.032426036950142,19.009861739981005,-0.01948685302217913,-0.007621271377383311,0.2212582689956198,0.13633199112697572,-0.07951052586857074,-0.03070975054276294,1.7246914670240399,1.057411896779086,29421965783913.24,0.0,768737691001.0989,0.1370760212064582,0.6613390422496525,0.12472446771086884,-0.7268319219467176,-0.07951052586857074,-0.03070975054276294,1.7246914670240399
13.7,-79.98961897043175,24.98975925920575,270.32213401130696,283.01392783270387,0,9.663037462910298,215.61953260223407,11.032419466497172,19.010737800376898,-0.011258322938090289,-0.0043581129066439074,0.13832532566766567,0.11493181645091788,0.0433080530741519,0.01717451826704954,-0.436489175410286,0.9293378959403803,8025757724.461266,0.0,-794328195413.9512,0.1353664970045185,0.6641798926519873,0.12406688990872916,-0.7246712278777844,0.0433080530741519,0.01717451826704954,-0.436489175410286
13.8,-79.99175352214426,24.988941544412665,270.32622576143996,283.01836718750707,0,9.666969318359119,215.80207290163648,11.03241844355964,19.010874192047996,-0.02134551712515501,-0.008177147930865542,0.04091750132999947,0.11752318609049636,-0.10087194187064577,-0.0381903502422158,-0.9740782433766482,0.9069122329004408,-176366232770.81207,0.0,4244096704.3107424,0.15688421702311445,0.4976690911884143,0.09206272606630729,-0.8480785768983804,-0.10087194187064577,-0.0381903502422158,-0.9740782433766482
14.0,-79.99388338714029,24.988134184310937,270.35274878755854,283.044231536976,0,9.674426947852506,216.16237186624852,11.03241181280311,19.011758292918618,-0.01064932498010766,-0.004036800508639985,0.13261513059291066,0.10002097462425494,0.053480960725236934,0.020701737111127855,0.4584881463145576,0.655864797336313,-176366232773.70773,0.0,4244096704.5937757,0.1327424101431921,0.6651131135056012,0.12183131226535099,-0.7246800191422172,0.053480960725236934,0.020701737111127855,0.4584881463145576
14.1,-79.99600864845083,24.987337176704653,270.35681252916726,283.04864334562114,0,9.677768327319374,216.34011451823014,11.032410796867708,19.01189375097224,-0.02125261310538925,-0.007970076062839865,0.040637416087179336,0.08063055908419164,-0.10603288125281628,-0.039332755541998936,-0.9197771450573166,0.7465094500402938,-176366232764.30957,0.0,4244096704.5887423,0.1538884093096778,0.4980209938359063,0.09031210123177502,-0.8486089626853672,-0.10603288125281628,-0.039332755541998936,-0.9197771450573166
14.3,-79.99812912920977,24.986550529169378,270.38366432756,283.0748210398076,0,9.684045763949957,216.69074666367496,11.03240408391811,19.012788810918664,-0.010602403794734925,-0.003933237676374525,0.13425899196363317,0.09996021931728258,0.053251046553271335,0.02018419193232659,0.4681078793822667,0.6629603990397168,-176366232756.57202,0.0,4244096704.3019476,0.13007371995683079,0.6661345630470945,0.11957836453385161,-0.7246009840084802,0.053251046553271335,0.02018419193232659,0.4681078793822667
14.41,-80.00024492265487,24.985774289051754,270.3876846258338,283.0791905135868,0,9.687053398557447,216.88081797993723,11.032403078843542,19.012922820861128,-0.019234485864542933,-0.00705672834203342,0.03654816612559214,0.12280247178343955,-0.07847347336189138,-0.028395369687808283,-0.8882802348912866,0.7781646670821304,-184391990478.26373,0.0,798572292118.3992,0.1509207937694618,0.49768393467609884,0.08841365468859506,-0.8495390755214959,-0.07847347336189138,-0.028395369687808283,-0.8882802348912866
14.6,-80.00235583212879,24.98500847346917,270.4148603689029,283.1056769043022,0,9.691885330512319,217.20444565163936,11.032396284907774,19.01382867896343,-0.011110049862700687,-0.004030608329399042,0.14303022667951718,0.12008729810164202,0.042760189483380354,0.01592694743491782,0.5604318976522384,0.808387459241659,-184391990478.26373,0.0,798572292118.3992,0.12736568071383955,0.6671370004212938,0.11727552333100646,-0.7245361672633172,0.042760189483380354,0.01592694743491782,0.5604318976522384
14.7,-80.0044618910801,24.984253079309333,270.4394904035122,283.1297313849671,0,9.694243603590284,217.37238167213866,11.032390127399122,19.014649680117074,-0.02106058951312669,-0.007553941598352792,0.2463003460928812,0.14076678251100908,-0.0995053965042604,-0.03523333268953763,1.032701194133644,1.126797912926119,-184391990478.26373,0.0,798572292118.3992,0.1265190263087772,0.664390232644243,0.11554678892999923,-0.7274802363753765,-0.0995053965042604,-0.03523333268953763,1.032701194133644
14.9,-80.00656313306439,24.983508143229933,270.44569627825086,283.1361871236804,0,9.697932466868796,217.70326335739577,11.032388575930437,19.014856542608364,-0.010506209921459175,-0.003724680396999227,0.031029373693342965,0.15822940820071535,0.0527718979583373,0.01914630600676772,-1.0763548619976855,1.0572875174381249,-184391990478.26373,0.0,798572292118.3992,0.1386638065906961,0.5669625404600566,0.09752654033775962,-0.8061106626181074,0.0527718979583373,0.01914630600676772,-1.0763548619976855
15.0,-80.0086593617452,24.98277366165825,270.46940564356566,283.1593613883834,0,9.699684029643766,217.86619431635535,11.032382648589108,19.015646854785523,-0.020962286808128356,-0.007344815716834345,0.23709365314800918,0.13720754902486357,-0.10456076886669217,-0.036201353198351306,2.0606427945466694,1.1406434287797838,-184391990478.26373,0.0,798572292118.3992,0.12399731766916983,0.6637850748416972,0.11292374905755088,-0.7288774015752174,-0.10456076886669217,-0.036201353198351306,2.0606427945466694
15.2,-80.01075059089509,24.9820496607908,270.49515315177433,283.1844820853969,0,9.70237181946891,218.1870002605127,11.032376211712055,19.016505105059146,-0.010456145749415705,-0.0036200043372503063,0.128737541043336,0.11414036667295499,0.05253070529356344,0.01862405689792026,-0.5417805605233678,1.0337087165550103,-184391990478.26373,0.0,798572292118.3992,0.12221118689269884,0.6667857847779987,0.1121576624341736,-0.7265547479533584,0.05253070529356344,0.01862405689792026,-0.5417805605233678
15.3,-80.01283686439663,24.98133616659299,270.49829805707833,283.188012584454,0,9.703318871113735,218.34486098772135,11.03237542548573,19.016609935235945,-0.020862735015469685,-0.007134941978108498,0.03144905303997758,0.11496913808145089,-0.10406589266053833,-0.03514937640858142,-0.9728848800335704,1.022402426335979,-184391990478.26373,0.0,798572292118.3992,0.14550868804288877,0.4552321730265429,0.07569142779300922,-0.8751352456073431,-0.10406589266053833,-0.03514937640858142,-0.9728848800335704
15.5,-80.01491800624346,24.980633174798744,270.5246022155759,283.21366411466676,0,9.704813550534473,218.65546287267864,11.032368849446106,19.017486740519196,-0.010405709234149222,-0.0035149589712269017,0.13152079248783413,0.09342838323715104,0.0522851289066025,0.018099915034408047,0.5003586972392845,0.7102776297912854,-184391990478.26373,0.0,798572292118.3992,0.11933993979530869,0.6680838452617338,0.10978924127281653,-0.7262012647818007,0.0522851289066025,0.018099915034408047,0.5003586972392845
15.6,-80.0169940805413,24.979940720910168,270.5275997852747,283.2170528511433,0,9.705159438312679,218.80819022595023,11.03236810005368,19.017586659509156,-0.02076074297832527,-0.006924538885755307,0.029975696987776353,0.07417096911104258,-0.10355033744176086,-0.03409579914528417,-1.0154509550005812,0.7904432578933738,-184391990478.26373,0.0,798572292118.3992,0.14288957309669295,0.44710057147194415,0.07259711461902578,-0.8800075612395031,-0.10355033744176086,-0.03409579914528417,-1.0154509550005812
15.8,-80.01906488150885,24.979258780197224,270.55359412610414,283.2424075033113,0,9.705451234258522,219.1084638150948,11.032361601468473,19.018453137536806,-0.01035400483779364,-0.0034097035647206826,0.12997170414735068,0.09453484275562761,0.05203369070265788,0.017574176605173027,0.499980035797869,0.7143406938792612,-184391990478.26373,0.0,798572292118.3992,0.11658789888630079,0.6683673093219142,0.10721879018394888,-0.7267713070110519,0.05203369070265788,0.017574176605173027,0.499980035797869
15.91,-80.021130563479,24.97858742769734,270.5564922999282,283.2457002183468,0,9.70515674847293,219.2706541433393,11.032360876925017,19.01854974333094,-0.01877892700137687,-0.006103204544384219,0.026347034764223252,0.11456198103462571,-0.07659020148712069,-0.024486372542395916,-0.9420424489375269,0.7807287987221512,-184391990478.26373,0.0,798572292118.3992,0.1399401591782681,0.44186021914995516,0.07000081418405261,-0.8833324315315749,-0.07659020148712069,-0.024486372542395916,-0.9420424489375269
16.1,-80.02319089089971,24.977926628215158,270.5830475705572,283.2715897007257,0,9.704293744548353,219.54582189342418,11.032354238107361,19.019434919018572,-0.01084382853003997,-0.0034778920114918164,0.13976458225783878,0.1119284125047741,0.04176367616493078,0.013817434383644132,0.5969344604927093,0.7978787771913722,-184391990478.26373,0.0,798572292118.3992,0.1136403576446074,0.6696423006072411,0.10475763142164592,-0.7264233593509875,0.04176367616493078,0.013817434383644132,0.5969344604927093
16.21,-80.02524587833496,24.977276416322134,270.60848900375976,283.2964147954635,0,9.703565010561551,219.70223234012272,11.032347877749059,19.02028296679199,-0.018681703956763874,-0.005911017209311642,0.23128575638690105,0.1372231074402172,-0.07125341297021767,-0.02211931998018035,0.8320106739005704,1.1675086592569985,-184391990478.26373,0.0,798572292118.3992,0.11238238480966582,0.6686761043773014,0.10326393221637403,-0.7277218062711195,-0.07125341297021767,-0.02211931998018035,0.8320106739005704
16.4,-80.02729563046587,24.976636826356263,270.6125003672751,283.30076912728305,0,9.701337766311099,219.96736217026677,11.03234687490818,19.02041667890917,-0.010788169110080625,-0.003366262978270163,0.021112439554527854,0.1563124209767524,0.041544920245701805,0.013393443321271103,-1.1061753517493458,1.100826646778812,-184391990478.26373,0.0,798572292118.3992,0.1292433731184762,0.5079800661607625,0.0774126789043939,-0.8480917875048142,0.041544920245701805,0.013393443321271103,-1.1061753517493458
16.5,-80.02933987209171,24.97600781242174,270.63810133082444,283.3257455625283,0,9.700111070216082,220.1043312027646,11.032340474667294,19.021270044360815,-0.020442416258390203,-0.006290139345210743,0.25600963549322475,0.1357685292736747,-0.0965424714830944,-0.029238763669405386,2.348971959386936,1.2026957187933214,-184391990478.26373,0.0,798572292118.3992,0.10943599686724216,0.6695052495251049,0.10067444153217676,-0.7277713516415607,-0.0965424714830944,-0.029238763669405386,2.348971959386936
16.71,-80.03137865813075,24.975389438388653,270.6649750661221,283.3519373060025,0,9.69661737315813,220.3861572640814,11.032333756233468,19.022165835537404,-0.009708504947796041,-0.002944638252801355,0.12797016808414238,0.11480453673363844,0.051113863383781516,0.015930957582901785,-0.6097117495670564,1.1295851035926274,-184391990478.26373,0.0,798572292118.3992,0.10776215522523118,0.6712475511180932,0.09955708039778928,-0.7265689442591419,0.051113863383781516,0.015930957582901785,-0.6097117495670564
16.8,-80.03341207362139,24.97478172789269,270.66760024688773,283.3549657124628,0,9.69476240686503,220.5045198979427,11.032333099938278,19.022253341562923,-0.02259350545159581,-0.006752338844033082,0.029168675173549617,0.11673499819192434,-0.1431666722644421,-0.04230778434701926,-1.0977943656732545,1.1107990247096797,-184391990478.26373,0.0,798572292118.3992,0.13057545544620405,0.42634484942019724,0.06234671742760891,-0.8929126534179519,-0.1431666722644421,-0.04230778434701926,-1.0977943656732545
17.01,-80.03543984372313,24.97418465433482,270.69424834885643,283.3809408186786,0,9.690013423783132,220.775021494724,11.032326437912786,19.023141611628546,-0.009656048103492793,-0.0028432074184284455,0.1268957236604923,0.09361764478613496,0.06160693975287126,0.018614911550498194,0.46536689755686794,0.761768238494701,-184391990478.26373,0.0,798572292118.3992,0.1048098633383679,0.6716300001858792,0.0968251097173529,-0.7270164602851378,0.06160693975287126,0.018614911550498194,0.46536689755686794
17.11,-80.03746214371746,24.973598280881014,270.6968666497905,283.38396138722504,0,9.687343775459846,220.90102607307088,11.032325783337551,19.02322888832635,-0.02022299994337161,-0.005863734538067558,0.02618300934045748,0.07376820182385765,-0.10566951839879041,-0.03020527119639177,-1.0071271432003697,0.8558416482458376,-184391990478.26373,0.0,798572292118.3992,0.12683635010110555,0.4277469526614339,0.06076207048072271,-0.8928902819343385,-0.10566951839879041,-0.03020527119639177,-1.0071271432003697
17.3,-80.03947868900903,24.973022560461942,270.7236344294899,283.41004965125313,0,9.681944023696332,221.13542212361364,11.032319091392628,19.024121147649666,-0.010613396271408851,-0.003030107468797356,0.14088305104953658,0.09466518920142494,0.0505768614313826,0.014913826680369384,0.6036844300477807,0.7603235242939035,-184391990478.26373,0.0,798572292118.3992,0.10176215393644406,0.672377970430178,0.09410143395694745,-0.7271157053960919,0.0505768614313826,0.014913826680369384,0.6036844300477807
17.41,-80.04148970512642,24.972457565772686,270.7260634698026,283.4128881207518,0,9.67836121181027,221.26811091169353,11.03231848413255,19.02420211566009,-0.018281964703574485,-0.005136315356873499,0.02208218466121677,0.12019960826250978,-0.06971425847423339,-0.019147344437055947,-1.0800078762574583,0.8923163205068944,-184391990478.26373,0.0,798572292118.3992,0.12407366796264581,0.41321490758614987,0.05694398681692858,-0.900342461195882,-0.06971425847423339,-0.019147344437055947,-1.0800078762574583
17.6,-80.0434948577233,24.97190324927247,270.75296185463577,283.439099938571,0,9.671838252821594,221.49206935496062,11.032311759536341,19.02509872848786,-0.010553434720418937,-0.002917455264301618,0.14157044649024053,0.11812464903993444,0.04067647359555524,0.011678211013536138,0.628885588573805,0.923243858404103,-184391990478.26373,0.0,798572292118.3992,0.09866550285196596,0.6731295312616584,0.0913292189512413,-0.7272006094993216,0.04067647359555524,0.011678211013536138,0.628885588573805
17.7,-80.0454942425793,24.971359653184386,270.778374169965,283.4638916504129,0,9.66823268727574,221.6072705583609,11.032305406457509,19.0259458056655,-0.019993848559920906,-0.005435960880824214,0.2541231532922038,0.1342361070321161,-0.09440413839502171,-0.025185056165226496,1.1255270680196567,1.16650627894825,-184391990478.26373,0.0,798572292118.3992,0.09730875459757586,0.6718051949853706,0.08969770271210303,-0.7288093772705645,-0.09440413839502171,-0.025185056165226496,1.1255270680196567
17.9,-80.04748799560103,24.970826819495127,270.7825354038452,283.46838272758004,0,9.6599671980035,221.83212031178587,11.032304366149038,19.026084513461505,-0.00996876510868109,-0.0026641684462980304,0.02080616940105536,0.1557776713715277,0.05012541725619926,0.013858962172630968,-1.1665849194557463,1.0395425255249384,17.284771309188457,0.0,-0.1762053192922565,0.11064622578659371,0.5226266915481254,0.06863206006446389,-0.8425606176008648,0.05012541725619926,0.013858962172630968,-1.1665849194557463
18.01,-80.04947570282305,24.970304679954705,270.80685464642,283.4921289905487,0,9.655308430259389,221.95262027996372,11.032298286338394,19.026895154880666,-0.01807006565467245,-0.0047467230947454845,0.22108402340718197,0.1346449045789882,-0.07364818678173765,-0.01893231498588543,1.8207077636920106,1.1270205551198524,5.323635324736014,0.0,0.1704549015665407,0.09430786178556637,0.6711067053929919,0.08667434898845848,-0.7302118695347437,-0.07364818678173765,-0.01893231498588543,1.8207077636920106
18.2,-80.05145754040879,24.9697933060762,270.83277208993167,283.5174013530896,0,9.64654597866023,222.15543897824057,11.032291806977517,19.02775906966439,-0.010430724135502433,-0.0026914414658226896,0.1364075974298614,0.10897065212507044,0.040207060627211105,0.010817271731172733,-0.44566539988063997,0.9977282690712302,5.323635324736014,0.0,0.1704549015665407,0.09248164626673204,0.673299451134146,0.0854661313161519,-0.7285674537090598,0.040207060627211105,0.010817271731172733,-0.44566539988063997
18.3,-80.0534335946516,24.969292729135507,270.8357792287307,283.52078780950137,0,9.641546575953903,222.25947103435806,11.032291055192816,19.027859307624357,-0.019760542428030877,-0.005005769406913814,0.030071387990346494,0.11147795910418659,-0.09329818292528312,-0.023143279410910912,-1.0633620943951338,0.9586037519164664,5.323635324736014,0.0,0.1704549015665407,0.10931702972177604,0.4648507911729369,0.057962902533925824,-0.8767005366078805,-0.09329818292528312,-0.023143279410910912,-1.0633620943951338
18.5,-80.05540351197567,24.968802890171105,270.8610167592846,283.5454093246916,0,9.631160573543445,222.46189603116898,11.032284745810179,19.02870055864282,-0.009849586620376306,-0.002449194822009568,0.12618765276954536,0.09383566369216474,0.04955477903827303,0.012782872924521273,0.48058132389599606,0.6984228800735476,5.323635324736014,0.0,0.1704549015665407,0.08933295904140182,0.6731401909159148,0.08243622424304536,-0.7294560814299537,0.04955477903827303,0.012782872924521273,0.48058132389599606
18.6,-80.05736756893697,24.96832387998379,270.86396658018765,283.5487395334295,0,9.625582231959704,222.56027997522926,11.032284008354953,19.028798886006257,-0.01964056961298838,-0.004790101873162133,0.029498209030407032,0.07772739519762102,-0.09790982992611934,-0.023409070511525312,-0.9668944373913695,0.7714941170871009,5.323635324736014,0.0,0.1704549015665407,0.10556361057950735,0.4628679157474413,0.05562872545878029,-0.8783593009679292,-0.09790982992611934,-0.023409070511525312,-0.9668944373913695
18.8,-80.05932537222427,24.96785562913644,270.8906227921698,283.5747148645356,0,9.614058616464888,222.75136889183602,11.032277344301956,19.02968742640566,-0.009789016436485588,-0.0023412542367395955,0.13328105991064423,0.11318548133002079,0.049257765882514126,0.012244238182112729,0.5189142544011879,0.71905579828354,5.323635324736014,0.0,0.1704549015665407,0.0858716189509657,0.6752829966924631,0.07963128858890973,-0.7282017559127805,0.049257765882514126,0.012244238182112729,0.5189142544011879
18.9,-80.06127725865998,24.967398257953793,270.89588279810465,283.58025038606576,0,9.607930057710307,222.8440653715732,11.032276029300473,19.029862759936822,-0.019518864357195714,-0.004573711826481128,0.05260005934872082,0.1746627633086752,-0.09729847920710333,-0.022324575897415797,-0.8068100056192513,1.0631199644784037,5.323635324736014,0.0,0.1704549015665407,0.09455774496102752,0.5636346652524435,0.0651537807657044,-0.8180035341278091,-0.09729847920710333,-0.022324575897415797,-0.8068100056192513
19.1,-80.06322288520126,24.9669516865222,270.9385601030191,283.6215289536037,0,9.595425463610212,223.02374177495693,11.032265359974245,19.031285336767304,-0.009728132706356835,-0.0022328571579599238,0.2133865245721692,0.2426134048432122,0.048953658254193705,0.011704273342605853,0.8039323261172304,0.927688561500964,5.323635324736014,0.0,0.1704549015665407,0.08143725506688178,0.6860016333576844,0.07771708954612652,-0.7188391937771899,0.048953658254193705,0.011704273342605853,0.8039323261172304
19.2,-80.06516229894083,24.966515924689435,270.981912714101,283.6634522626525,0,9.589110074511659,223.11071371301512,11.032254521821475,19.032730423803365,-0.019394137395778856,-0.004357618327652894,0.4335261108190117,0.2985618181829048,-0.09666004689422228,-0.021247611696930156,2.201395862468472,0.9010297515210034,5.323635324736014,0.0,0.1704549015665407,0.07974823925256501,0.6865098641876856,0.07617547696297053,-0.7187083702160323,-0.09666004689422228,-0.021247611696930156,2.201395862468472
19.4,-80.06709576710804,24.96609121206445,271.05698944070764,283.7356816821745,0,9.575799922451477,223.27890573501014,11.032235752639822,19.03523298135692,-0.009667340836045958,-0.0021235631249361194,0.3753836330332674,0.3487330858457586,0.04863398279866466,0.011170276013583913,-0.2907123889287227,0.8448405292306006,5.323635324736014,0.0,0.1704549015665407,0.07729882272942122,0.6936517505595566,0.07528753220172273,-0.7121825106286187,0.04863398279866466,0.011170276013583913,-0.2907123889287227
19.5,-80.06902273706966,24.965677248017162,271.0982826943736,283.7756372953113,0,9.568902256951475,223.36011834377368,11.032225429326406,19.036609423145787,-0.019269699616159822,-0.004139640472864355,0.41293253665969,0.3375101714234034,-0.09602358780113728,-0.020160773479282072,0.3754890362642207,0.9857702658908526,5.323635324736014,0.0,0.1704549015665407,0.07643540165336028,0.6861861383448873,0.07287414443485796,-0.7197190924175265,-0.09602358780113728,-0.020160773479282072,0.3754890362642207
19.7,-80.07094365633098,24.965274311678268,271.1596807888186,283.8347995312884,0,9.554338420270977,223.5167587098137,11.032210079802795,19.038656026293953,-0.009604596306616066,-0.0020146816944688413,0.30699047222498277,0.32151432393860035,0.04832551654771895,0.010624793891977609,-0.529710322173538,0.7428699592443906,5.323635324736014,0.0,0.1704549015665407,0.07412872710124147,0.6920041676865601,0.07179690619503512,-0.7144790885558527,0.04832551654771895,0.010624793891977609,-0.529710322173538
19.8,-80.07285785253663,24.96488198193903,271.1753096399552,283.85023596144896,0,9.54662900696317,223.59217950532195,11.03220617259001,19.03917698799851,-0.01914196205646563,-0.003923297392383007,0.15628851136568533,0.3106447176535533,-0.09537365749849427,-0.01908615697914139,-1.507019608592953,0.7531902371565286,5.323635324736014,0.0,0.1704549015665407,0.07564864673535138,0.6584156564798713,0.06677966152922246,-0.7458596264414187,-0.09537365749849427,-0.01908615697914139,-1.507019608592953
20.0,-80.07476590347156,24.964500737451072,271.2460833658961,283.91835476577523,0,9.531055687310324,223.73720556134907,11.032188479158526,19.041536112196535,-0.009540254674647065,-0.0019062224397892247,0.3538686297045514,0.3116732562474554,0.04800853690909299,0.010085374762968948,0.9879005916943339,0.7739063727783759,5.323635324736014,0.0,0.1704549015665407,0.07056184183615463,0.6939352848744729,0.0686485631553047,-0.7132756982118387,0.04800853690909299,0.010085374762968948,0.9879005916943339
20.1,-80.07666749706199,24.96413026662621,271.2781414869612,283.94948587032843,0,9.522962541520014,223.80680437628936,11.03218046462826,19.042604716232038,-0.019015935904320443,-0.003704708248619629,0.32058121065119394,0.33405682009677545,-0.09475681229673243,-0.017984858088303787,-0.33287419053357,0.6866284172887249,5.323635324736014,0.0,0.1704549015665407,0.06994132142611725,0.6822783079396146,0.0658422065777022,-0.7247546660113366,-0.09475681229673243,-0.017984858088303787,-0.33287419053357
20.3,-80.07856260137632,24.96377077763625,271.36182832568534,284.0299419286629,0,9.506429765559973,223.94015811381485,11.032159542918578,19.045394277522846,-0.009475521571644696,-0.0017974449498048336,0.41843419362067075,0.3952979304701935,0.047702071663378906,0.00953631649407401,0.48926491484738577,0.46604737671853985,5.323635324736014,0.0,0.1704549015665407,0.06694044380331342,0.6958443710224612,0.06541531132666323,-0.7120677112071622,0.047702071663378906,0.00953631649407401,0.48926491484738577
20.4,-80.08045118462601,24.963422098412803,271.40369080682416,284.07043930751223,0,9.497894209975001,224.00390710958922,11.032149077298294,19.046789693560804,-0.018885832496949154,-0.0034867922344617628,0.4186248113882219,0.41467788742599254,-0.09410310925304659,-0.01689347284656965,0.0019061776755114185,0.2835787685052992,5.323635324736014,0.0,0.1704549015665407,0.06591871064790869,0.6878382310396021,0.06296392723227687,-0.7201172372428789,-0.09410310925304659,-0.01689347284656965,0.0019061776755114185
20.51,-80.08233287516657,24.963084376647124,271.4546631573614,284.11963988820116,0,9.488348336249008,224.0717720395872,11.032136334210659,19.048488771912044,-0.017106277641428642,-0.003070197869803254,0.4633850048838252,0.40594002325023676,0.01617777141382239,0.0037872214968954323,0.4069108499600193,0.38774244837487454,817098860924.4545,0.0,-554063524421.0303,0.06386830547295176,0.69099627692823,0.061517781099018363,-0.7173984579269681,0.01617777141382239,0.0037872214968954323,0.4069108499600193
20.7,-80.08420837149849,24.96275761978995,271.54031340651494,284.20197308143787,0,9.471331260063305,224.1834088667562,11.03211492164837,19.051343780217167,-0.009871033325892934,-0.00171977293249291,0.45079078501873876,0.5302812663806782,0.03808023323966208,0.007107499670054527,-0.06628536771098219,1.8150536799724257,817098860924.4545,0.0,-554063524421.0303,0.061582881116914095,0.6966072619420424,0.060229288774438894,-0.712262805526637,0.03808023323966208,0.007107499670054527,-0.06628536771098219
20.9,-80.08607704226804,24.962441685051296,271.5957763857436,284.25546429483904,0,9.452386930748661,224.29326263823438,11.032101055903563,19.053192546191454,-0.009343353847768332,-0.0015796736932749468,0.27731489614325355,0.517277070861879,0.00263839739062302,0.0007004961960898186,-0.8673794443774291,3.168998418750076,817098860924.4545,0.0,-554063524421.0303,0.06014729325160337,0.6924926140697634,0.05812714268657305,-0.7165595005695105,0.00263839739062302,0.0007004961960898186,-0.8673794443774291
21.0,-80.08793893626832,24.962136629400362,271.6997844287526,284.35533947298217,0,9.443416577585273,224.3452378494807,11.032075053892811,19.05665948095842,-0.018618940002710097,-0.003050556509336345,1.0400804300900142,0.48923062554141916,-0.09275586154941633,-0.014708828160613774,7.6276553394674975,3.119189753129354,817098860924.4545,0.0,-554063524421.0303,0.0578713109967298,0.6983564007271433,0.05683103908368695,-0.7111395657138042,-0.09275586154941633,-0.014708828160613774,7.6276553394674975
21.1,-80.08979427244006,24.961842519565298,271.7351389714996,284.389617392115,0,9.433587048984613,224.39524216856668,11.032066215257124,19.057837965716654,-0.018553361717436892,-0.002941098350639451,0.3535454274702892,0.4364324283547675,0.000655782852732036,0.0010945815869689238,-6.865350026197152,3.3791829383656107,817098860924.4545,0.0,-554063524421.0303,0.05697995031734571,0.6859673742510566,0.05403279329291738,-0.7233826815551424,0.000655782852732036,0.0010945815869689238,-6.865350026197152
21.3,-80.0916428698726,24.961559442033128,271.7998076522006,284.4519048049189,0,9.413353756789146,224.4893293283274,11.03205004808695,19.059993588406687,-0.009242987162707583,-0.001415387660852479,0.32334340350502205,0.4896661560767785,0.04655187277364671,0.007628553448934887,-0.15101011982633636,3.5634132538043923,817098860924.4545,0.0,-554063524421.0303,0.05444118770488371,0.6948016234336565,0.05288956940413907,-0.7151849792910097,0.04655187277364671,0.007628553448934887,-0.15101011982633636
21.4,-80.09348463780475,24.961287213049573,271.81840581133497,284.4701704547846,0,9.402844921386642,224.53340798736608,11.032045398547165,19.0606135270445,-0.018417679321487804,-0.0027222898355461793,0.18598159134342437,0.3375515323617378,-0.09174692158780418,-0.013069021746937281,-1.3736181216160062,2.30180673524326,817098860924.4545,0.0,-554063524421.0303,0.05435636545983663,0.6691612972693116,0.04918667073584753,-0.7394925389703211,-0.09174692158780418,-0.013069021746937281,-1.3736181216160062
21.6,-80.09531948562574,24.961025988618896,271.9271190916509,284.5745440467117,0,9.382038112473875,224.61562566862588,11.032018220227087,19.06423730305503,-0.009174239104936402,-0.0013061221533838632,0.5435664015797592,0.6096987022983238,0.04621720108275636,0.007080838410811479,1.7879240511816488,3.7991056911467083,-1501063125911.7258,0.0,602090551145.6545,0.050381170031250644,0.6993025328196878,0.04952959001241945,-0.7113258922684126,0.04621720108275636,0.007080838410811479,1.7879240511816488
21.8,-80.09714748287601,24.960775644503812,271.9830243381707,284.6284576141444,0,9.360038138624455,224.68991180060564,11.032004243915457,19.066100811272356,-0.009139986251369725,-0.001251720575421449,0.2795262325989266,0.7745167374319232,0.00017126426783338884,0.0002720078898120719,-1.3202008449041678,4.798802386763191,1127336004955.058,0.0,1191324333397.2822,0.04886921881543298,0.6937374351878791,0.047282978749071065,-0.7170108021445195,0.00017126426783338884,0.0002720078898120719,-1.3202008449041678
21.9,-80.09896865924826,24.96053641622534,272.1544924981951,284.79280353515094,0,9.350226709833542,224.72407635352403,11.03196137687545,19.071816416606502,-0.018211763722462526,-0.0023922827847045426,1.7146816002440712,1.0430818616778788,-0.09071777471092995,-0.01140562209283118,14.35155367645175,4.9057895041411275,1795243595785.0613,0.0,598396430910.01,0.04639177076312652,0.7018102095604868,0.04589746906557586,-0.709368490768727,-0.09071777471092995,-0.01140562209283118,14.35155367645175
22.01,-80.10078258458815,24.96030797906268,272.2807118213085,284.91391397225857,0,9.338622115317586,224.75936147849427,11.031929822044672,19.07602372737695,-0.016490230362622788,-0.002076701478741045,1.147448391939871,1.294010453878086,0.015650303271269927,0.0028689209633044467,-5.156665530038044,5.085360009426877,897621797892.5281,0.0,299198215454.56146,0.044582093685747455,0.7005908805229554,0.04394101064711675,-0.7108122414772942,0.015650303271269927,0.0028689209633044467,-5.156665530038044
22.21,-80.10258965889537,24.960090488053076,272.58665375938295,285.2067930379129,0,9.317787581159998,224.81734819391818,11.031853336560154,19.086221791979433,-0.0090353715361147,-0.0010874550480188855,1.529709690372277,1.6816711814199548,0.03727429413254057,0.004946232153610814,1.9113064921620373,5.263270689465457,0.029686742801043352,0.0,-0.7656673132532008,0.042448732904797414,0.7037363577134682,0.04219694732129755,-0.7079354925017689,0.03727429413254057,0.004946232153610814,1.9113064921620373
22.31,-80.10438967232439,24.959883997991753,272.7664734665825,285.3791479792535,0,9.307399413942523,224.84335436165958,11.031808381633354,19.092215782219416,-0.018000134290190702,-0.002064900613234543,1.7981970719955982,1.8411815087636754,-0.08964762754076193,-0.009774455652156785,2.684873816233268,2.6872559968197423,0.12364374073806376,0.0,-0.7736119377930777,0.040562517190639524,0.7023886998971299,0.040155878291987475,-0.709501446013028,-0.08964762754076193,-0.009774455652156785,2.684873816233268
22.5,-80.1061824851854,24.959688413431778,273.18788619936754,285.7824481736484,0,9.288025255769519,224.88727439718247,11.031703028450158,19.106262873312254,-0.009435857163222537,-0.0010293924209224103,2.217961751500139,2.109903009312867,0.045075142773516354,0.005450043117432242,2.2092877868659886,1.6966534289365776,0.18820608382673773,0.0,-0.6269436472470344,0.038481689724930324,0.7045509442070645,0.038317358435061004,-0.7075725451255207,0.045075142773516354,0.005450043117432242,2.2092877868659886
22.7,-80.10796798794519,24.95950374868396,273.69034931649816,286.2632890741057,0,9.267613398223489,224.92572553980804,11.031577412670876,19.123011643883274,-0.008927513798937557,-0.0009233237390837733,2.512315585653093,2.441469402075269,0.0025417168214249106,0.0005303434091931866,1.471769170764777,2.8618582966424233,0.0675988597229253,0.0,-0.3320251582050638,0.03648541283632573,0.7049057212955333,0.03635530316762739,-0.7074284632855656,0.0025417168214249106,0.0005303434091931866,1.471769170764777
22.81,-80.10974643122793,24.959330177816767,273.9643728790383,286.52577064411787,0,9.256101927167604,224.94346972623535,11.03150890678024,19.132145762634607,-0.01616766620677696,-0.0015779169744883491,2.491123295819568,2.67616461478385,-0.06581956734399493,-0.005950847594587083,-0.19265718030477627,2.5406127189150896,159113976930.56308,0.0,331436512468.4915,0.0344951989820754,0.7039638448381017,0.034270991014656235,-0.7085693230607838,-0.06581956734399493,-0.005950847594587083,-0.19265718030477627
22.9,-80.11151764581624,24.95916759465623,274.25124855035875,286.8005624784664,0,9.24717363829193,224.9561900051043,11.03143718786241,19.14170828501196,-0.019680162092249227,-0.001806479561534189,3.187507459116058,2.536107804790975,-0.03902773206080302,-0.002539584300509337,7.737601814405459,3.552740651304924,318227953861.08655,0.0,662873024937.1687,0.03245148621797146,0.7041731913035447,0.03225090715322804,-0.7085526774202606,-0.03902773206080302,-0.002539584300509337,7.737601814405459
23.1,-80.11328138265179,24.959015922785856,274.84559879614056,287.3694373230022,0,9.226466544080347,224.97866237724656,11.031288600300964,19.161519959871352,-0.008818684177782518,-0.0007583593518667335,2.971751228909014,3.2427919716722733,0.05430738957233277,0.005240601048337204,-1.0787811510352043,12.314512326483532,168009031571.534,0.0,1329837799209.4214,0.030364893427483292,0.7054035920954088,0.03027458760197415,-0.707507734835148,0.05430738957233277,0.005240601048337204,-1.0787811510352043
23.3,-80.11503776283638,24.958875295546555,275.1491332843781,287.66023409380693,0,9.20226010777742,224.99313866120556,11.031212716678905,19.171637776145936,-0.008781900922940653,-0.0007031361965026431,1.5176724411875906,3.301087343469857,0.00018391627420932528,0.00027611577682045286,-7.270393938607144,15.536876355239102,168009031571.534,0.0,1329837799209.4214,0.02832186219808416,0.7044889689155861,0.02815793253295412,-0.7085903581289804,0.00018391627420932528,0.00027611577682045286,-7.270393938607144
23.4,-80.11678689763272,24.958745706036563,275.7537059853818,288.2390412395443,0,9.19446664599207,224.9973774103485,11.031061573503655,19.191790199512727,-0.0174913479634146,-0.001295895099922034,6.045727010037596,3.1123025522540297,-0.08709447040474132,-0.005927589034194035,45.28054568850102,15.067598966700178,168009031571.534,0.0,1329837799209.4214,0.026178148522303553,0.7055977061931947,0.026102313134406193,-0.7076476883335943,-0.08709447040474132,-0.005927589034194035,45.28054568850102
23.6,-80.11852838846521,24.958627017111368,276.31023387178107,288.7719809745934,0,9.171923870258162,224.99985518102872,11.030922441532054,19.210341129059366,-0.008707454162433114,-0.0005934446259736519,2.7826394319961483,3.080026283046476,0.0439194690049068,0.003512252369741861,-16.315437890207008,15.985071760499673,168009031571.534,0.0,1329837799209.4214,0.02409179444821787,0.7055883996698328,0.024016349858888255,-0.7078049241359405,0.0439194690049068,0.003512252369741861,-16.315437890207008
23.7,-80.12026284692094,24.958519301383674,276.53459161852595,288.9871356410215,0,9.159901392705136,224.9980940924433,11.030866352095368,19.21781972061753,-0.01734458455729319,-0.0010771572769386014,2.2435774674489064,3.311826850628883,-0.08637130394860261,-0.004837126509649598,-5.390619645472533,14.664917894012103,168009031571.534,0.0,1329837799209.4214,0.022009928225590232,0.7040243556144249,0.02184010692694353,-0.7094986113380475,-0.08637130394860261,-0.004837126509649598,-5.390619645472533
23.8,-80.12198971475038,24.9584228112233,276.81562460289035,289.2565403398213,0,9.148306213142776,224.99433309597197,11.030796093849277,19.22718748676301,-0.017268678294470628,-0.0009649016037371757,2.8103298436439728,2.6423794418452102,0.0007590626282256184,0.0011225567320142411,5.667523761950583,5.655560073307514,168009031571.534,0.0,1329837799209.4214,0.019792628033226588,0.7046530721846952,0.019671193074254568,-0.7090030633920028,0.0007590626282256184,0.0011225567320142411,5.667523761950583
24.0,-80.12370921386838,24.958337158757153,277.3509620044733,289.7693625915713,0,9.124435981147034,224.98081213686774,11.03066225949888,19.245032066815778,-0.008597495589981494,-0.00042826233073611926,2.676687007914618,2.762651149331127,0.04335591352244582,0.0026831963650052917,-0.6682141786467756,3.0780545886608133,168009031571.534,0.0,1329837799209.4214,0.017623269929027147,0.7057502624676343,0.017566685088052605,-0.7080235864424935,0.04335591352244582,0.0026831963650052917,-0.6682141786467756
24.1,-80.12542106635489,24.958262725869194,277.6208081052008,290.02812117506625,0,9.11231926788499,224.9710527751641,11.0305947979737,19.254026936840027,-0.017118524865082675,-0.0007443288795982888,2.698461007275303,2.8607158429024517,-0.0852102927510106,-0.00316066548862165,0.21773999360684607,3.300072454759781,168009031571.534,0.0,1329837799209.4214,0.015410628751865897,0.7046918981303316,0.015313084950626579,-0.7091807602157842,-0.0852102927510106,-0.00316066548862165,0.21773999360684607
24.3,-80.12712469445582,24.958199174200367,278.29760828932797,290.6764981854917,0,9.089057586037809,224.94553845617358,11.030425597927668,19.2765869429776,-0.008518140504634205,-0.0003177583441349452,3.384000920635811,2.9586488037531375,0.04300192180224251,0.0021328526773167255,3.427699566802552,2.7327534620891316,168009031571.534,0.0,1329837799209.4214,0.013198572835131556,0.7060929198839878,0.013165368411777583,-0.7078737593945705,0.04300192180224251,0.0021328526773167255,3.427699566802552
24.4,-80.12882133058392,24.95814681514858,278.57099984343995,290.93872044478536,0,9.07657999510314,224.9297846328522,11.03035725003914,19.285699994781332,-0.016966361281021497,-0.0005235905178580081,2.7339155411198717,3.0447880852756306,-0.08448220776387473,-0.0020583217372306725,-6.500853795159532,2.9493718257671353,168009031571.534,0.0,1329837799209.4214,0.010940749409541864,0.7048243881076959,0.010873030948788678,-0.7092141137406646,-0.08448220776387473,-0.0020583217372306725,-6.500853795159532
24.6,-80.13050966731954,24.958105719868676,279.2310072564529,291.5711937659854,0,9.052371332556314,224.8922871593628,11.030192248185886,19.307700241881765,-0.008441683678128578,-0.00020547639952183934,3.3000370650648376,3.0941196447694663,0.04262338801446399,0.0015905705916808212,2.8306076197247894,3.0734762432825664,10180630750.48055,0.0,19575720832.454567,0.008614822698715852,0.706149247964903,0.008592807164872365,-0.7079584649493916,0.04262338801446399,0.0015905705916808212,2.8306076197247894
24.71,-80.13219072741157,24.958075479272395,279.57281681961564,291.89901237732494,0,9.03862899354893,224.8682612775204,11.030106795795096,19.319093893987187,-0.015282364472956236,-0.0002749145116483361,3.107359665115584,2.748334050397124,-0.06218800722570631,-0.0006312555647863372,-1.7516127268114043,3.6779796454877007,2245242979.5232,0.0,729051082958.7562,0.006374922677516375,0.7053370333617393,0.006343642099399663,-0.7088150590487133,-0.06218800722570631,-0.0006312555647863372,-1.7516127268114043
24.9,-80.13386401377811,24.958056454028366,280.13239722650997,292.43546419614074,0,9.014231019021729,224.82107954624416,11.029966900693372,19.337746574217,-0.008806770350208675,-0.00010013286331095156,2.945160036285965,3.413525904535993,0.03408207433025073,0.0009199034123020349,-0.8536822569980063,11.187398695296974,117654372588.98569,0.0,352948158517322.75,0.004025708384631462,0.7060373038407545,0.00401368772489895,-0.7081518266361579,0.03408207433025073,0.0009199034123020349,-0.8536822569980063
25.1,-80.13552956950736,24.958048244562082,280.4634097730513,292.7530213218811,0,8.985495933958338,224.76364584287256,11.029884147556738,19.348780325768374,-0.008327778646233124,-4.104733141829739e-05,1.65506273270663,3.314425480767114,0.0023949585198777225,0.00029542765946326667,-6.450486517896582,13.876594773169018,233558032719.78644,0.0,353698591711394.5,0.0017470152025011963,0.705323422224896,0.001738246755725055,-0.7088813698335283,0.0023949585198777225,0.00029542765946326667,-6.450486517896582
25.2,-80.13718687785851,24.958051431055907,281.0694002574889,293.33407714249046,0,8.975355301623052,224.7319440989134,11.029732649935628,19.368980008582962,-0.01657308351155997,3.186493824358717e-05,6.059904844376107,3.378103230347301,-0.08245304865327023,0.0007291226966188611,44.048421116695714,14.768585049908086,233558032719.78644,0.0,353698591711394.5,0.0006807023120086159,-0.7061388703046272,0.0006788432183671741,0.7080727163654538,-0.08245304865327023,0.0007291226966188611,44.048421116695714
25.4,-80.13883687226242,24.95806568344905,281.6303069804064,293.8720266166489,0,8.94821553070147,224.66257787119167,11.029592423254899,19.38767689934688,-0.008249972019527292,7.126196571505287e-05,2.8045336145874087,3.0774603346046767,0.04161555746016354,0.00019698513735732918,-16.27685614894355,16.581540720124234,233558032719.78644,0.0,353698591711394.5,0.0030583418918509876,-0.7060593637279239,0.0030493582010599606,0.7081394798000981,0.04161555746016354,0.00019698513735732918,-16.27685614894355
25.5,-80.14047890632246,24.958090731437593,281.9728816447214,294.2007964559604,0,8.935096251230048,224.6249164703611,11.02950677958882,19.39909605482405,-0.016420340600404638,0.00025047988543746766,3.4257466431500427,3.9663654669196475,-0.0817036858087723,0.0017921791972241223,6.212130285626253,24.606761585789695,233558032719.78644,0.0,353698591711394.5,0.005405629356475883,-0.70538939540449,0.0053797781087527065,0.7087789768395003,-0.0817036858087723,0.0017921791972241223,6.212130285626253
25.7,-80.14211343381541,24.958126844474464,282.2612687556854,294.477656674989,0,8.904557128310831,224.54364546385537,11.029434682811079,19.408708958522848,-0.008172637464767292,0.00018056518435116751,1.4419355548201958,3.3264435007982565,0.04123851567818687,-0.000349573505431502,-9.91905544164927,18.882101615479698,233558032719.78644,0.0,353698591711394.5,0.007832039405231223,-0.7050565881671818,0.007787763807941678,0.7090650304278725,0.04123851567818687,-0.000349573505431502,-9.91905544164927
25.8,-80.14373954869211,24.95817437176947,282.8712275208833,295.0628082561263,0,8.893782090320075,224.50003947021156,11.029282193119778,19.429040917362776,-0.016261148767000345,0.0004752729500623264,6.099587651978508,3.3984805030887792,-0.08088511302232937,0.002947077657111547,46.57652097158246,16.303483585546687,233558032719.78644,0.0,353698591711394.5,0.010343944658573466,-0.7060878390094906,0.010316393312726005,0.7079735436023193,-0.08088511302232937,0.002947077657111547,46.57652097158246
26.01,-80.1453577950784,24.958232982289328,283.47189205023255,295.63914719170407,0,8.864007371422817,224.40203165560322,11.029132026987442,19.449063068341083,-0.007705935172791205,0.0002790977136090153,2.860307282615578,3.3472292186849573,0.04073911235337669,-0.0009341677926348108,-15.42514461601389,15.071270491531005,233558032719.78644,0.0,353698591711394.5,0.012816133827836255,-0.7060373254110094,0.012781629897847339,0.7079432687562822,0.04073911235337669,-0.0009341677926348108,-15.42514461601389
26.1,-80.1469684972758,24.958302264757645,283.7567132559826,295.91269950625684,0,8.851380837055933,224.3573630475999,11.029060821686004,19.45855710853275,-0.01789669108218406,0.0007698052035228417,3.164680063889596,3.630299710578405,-0.11323062121547635,0.0054523054434869695,3.3819197919335364,13.399735208495178,-1538408561.9434986,0.0,806444157663.5178,0.01524009544476109,-0.7049398680659815,0.01515407510676453,0.7089413769202709,-0.11323062121547635,0.0054523054434869695,3.3819197919335364
26.2,-80.1485710497623,24.958382717655006,284.07366215271367,296.2170822860387,0,8.837259906350814,224.30585847190287,11.028981584461821,19.469122071757123,-0.01602552486502907,0.0008045289736102917,3.169488967310553,3.0417901089587582,0.018711662171550323,0.00034723770087450673,0.04808903420956959,4.684068243003943,-1538408561.9434986,0.0,806444157663.5178,0.017777511789299778,-0.7050928304906938,0.017687739999646145,0.7086714360822708,0.018711662171550323,0.00034723770087450673,0.04808903420956959
26.4,-80.15016579719327,24.958474539218948,284.6451221573353,296.765597899431,0,8.80809645155065,224.19694427119282,11.028838719460666,19.488170738577843,-0.007973737154856081,0.00045910781970803945,2.8573000231082903,3.0635549630409264,0.040258938550865084,-0.0017271057695112673,-1.560944721011318,1.787088010738924,-1538408561.9434986,0.0,806444157663.5178,0.020359861870171456,-0.7058258667887026,0.020303029969973643,0.7078016026900776,0.040258938550865084,-0.0017271057695112673,-1.560944721011318
26.5,-80.15175212440208,24.95857697744403,284.9608242890851,297.0688561812992,0,8.793669325470615,224.13953948679304,11.028759793927728,19.498694142969505,-0.015863272088125543,0.0010243822508115695,3.157021317497834,2.7219095241943014,-0.0788953493326935,0.0056527443110352205,2.997212943895395,2.6229733092347454,-1538408561.9434986,0.0,806444157663.5178,0.022852676334819123,-0.7049577344807759,0.02273789766242817,0.7085162918310071,-0.0788953493326935,0.0056527443110352205,2.997212943895395
26.7,-80.15333064640099,24.958690790081878,285.55465056952715,297.63896102753574,0,8.764157845355884,224.018847306362,11.028611337357617,19.518488352317572,-0.007892609994542027,0.0005690631892463237,2.969131402210234,3.2596517105257945,0.03985331046791772,-0.0022765953078262373,-0.939449576438004,11.416141195461945,-1538408561.9434986,0.0,806444157663.5178,0.025475820861529292,-0.7057066503458358,0.025408015158592184,0.707589951154475,0.03985331046791772,-0.0022765953078262373,-0.939449576438004
26.9,-80.15490118838184,24.958815204641233,285.84594702254924,297.9188749813558,0,8.731257634545745,223.89032966901024,11.028538513244362,19.528198234084975,-0.007852709904270255,0.0006220727967765093,1.4564822651104288,3.2702048064300877,0.000199500451358859,0.00026504803765092934,-7.563245685499053,17.000217703778972,-1538408561.9434986,0.0,806444157663.5178,0.028017463831409472,-0.704641243259477,0.027866342561348574,0.7084625656803949,0.000199500451358859,0.00026504803765092934,-7.563245685499053
27.0,-80.15646375571687,24.958951048387988,286.4317689743622,298.4814335884894,0,8.719077450211282,223.82314338951878,11.02839205775641,19.54772563247874,-0.01562567335028553,0.001358437467544585,5.858219518129802,3.222603345317195,-0.07772963446015163,0.007363646707680652,44.01737253019311,16.412508996027476,-1538408561.9434986,0.0,806444157663.5178,0.030690918047375657,-0.7054958671298703,0.030608857158553198,0.707387267962556,-0.07772963446015163,0.007363646707680652,44.01737253019311
27.1,-80.1580180039595,24.95909744834528,286.7227724534966,298.76112973273257,0,8.703863605886283,223.75400942197925,11.028319306886626,19.557425748449887,-0.015542482426269323,0.0014639995729126346,2.910034791343564,3.210822436506015,0.0008319092401620473,0.001055621053680481,-29.481847267861962,16.247905288744448,-1538408561.9434986,0.0,806444157663.5178,0.033281143327962545,-0.7044301996840544,0.03310308098278617,0.708219348296355,0.0008319092401620473,0.001055621053680481,-29.481847267861962
27.3,-80.159564328845,24.959255241293516,287.3065811908001,299.3218865554874,0,8.673204767092841,223.60991079962054,11.0281733547023,19.57688603969334,-0.007731624427478351,0.0007889647411829543,2.9190436865175786,3.495780437927054,0.039054289993955,-0.0033751741586484133,0.045044475870073146,14.765194299312665,-1538408561.9434986,0.0,806444157663.5178,0.03598582023784766,-0.7052522126268965,0.03589013774380384,0.707132402976562,0.039054289993955,-0.0033751741586484133,0.045044475870073146
27.4,-80.16110212629134,24.95942357377048,287.5976008194355,299.6016607369391,0,8.65774556599126,223.5349525491609,11.02810059979514,19.586586693981186,-0.015377974463462224,0.001683324769636876,2.9101962863541697,2.9034089855283023,-0.07646350035984037,0.008943600284539409,-0.08847400163409092,5.976795916097864,-1538408561.9434986,0.0,806444157663.5178,0.03863084555434443,-0.7041772572733984,0.03842604002178593,0.707930425648534,-0.07646350035984037,0.008943600284539409,-0.08847400163409092
27.6,-80.16263222239992,24.95960320207139,288.1738574748772,300.1552956867152,0,8.626536653598883,223.37923482686017,11.027956535631281,19.605795249162572,-0.007650480542906626,0.0008981415045461333,2.88128327720837,2.892557458340042,0.03863746960277744,-0.003925916325453659,-0.14456504572899725,0.16302443153085733,6574473812.378125,0.0,406125884060.025,0.04134855441080306,-0.704955803527931,0.04123815812795639,0.7068429998483677,0.03863746960277744,-0.003925916325453659,-0.14456504572899725
27.8,-80.16415415345625,24.959793482248994,288.75313209490827,300.7119122955311,0,8.595060011551368,223.2158053548394,11.027811716976272,19.625104403163608,-0.0076096552816551635,0.0009514008880273684,2.8963731001553685,2.8890631502079414,0.0002041263062573143,0.00026629691740617643,0.07544911473499365,0.24261120697850663,9916840823.178125,0.0,813344761909.6,0.044004804324558194,-0.7048048874288605,0.04388844443701325,0.7066735118126671,0.0002041263062573143,0.00026629691740617643,0.07544911473499365
27.9,-80.16566706593082,24.959994540113637,289.0387099196172,300.98656338043526,0,8.579174033712953,223.13120773855115,11.027740322520096,19.63462366398724,-0.015129124745670065,0.002010578646434212,2.8557782470892943,2.8771961415738203,-0.07519469464015062,0.010591777584068662,-0.4059485306607511,0.27037675406060535,9916840823.178125,0.0,813344761909.6,0.04680221561601409,-0.703676579457955,0.0465527588719575,0.7074472876315194,-0.07519469464015062,0.010591777584068662,-0.4059485306607511
28.0,-80.16717145647969,24.960206541233372,289.3288641913941,301.2656285476254,0,8.56326494222575,223.0446931867965,11.02766778395215,19.64429547304647,-0.01504390548873836,0.0021200111973484737,2.9015427177688067,2.5826075540997318,0.0008521925693170309,0.0010943255091426015,0.45764470679511743,1.683000413028875,9916840823.178125,0.0,813344761909.6,0.04958626694932536,-0.7035260051622148,0.04932731176227188,0.7072193284298961,0.0008521925693170309,0.0010943255091426015,0.45764470679511743
28.2,-80.16866833194537,24.960429380934038,289.89904265492737,301.81367323108714,0,8.531146354983381,222.8659287422218,11.027525239336267,19.663301421830912,-0.007484377328381724,0.0011141985033269503,2.850892317666488,3.1085271557171863,0.037797640801783314,-0.005029063470107635,-0.25325200051159324,9.90318478014576,9916840823.178125,0.0,813344761909.6,0.05227141920011274,-0.7042407725225776,0.052132864157818065,0.7061124538813287,0.037797640801783314,-0.005029063470107635,-0.25325200051159324
28.4,-80.17015588935745,24.960663134299388,290.1807087571993,302.08464432052546,0,8.495889790185657,222.67954380099016,11.0274548228107,19.672690291906644,-0.007437787060382587,0.0011687668267512704,1.4083305113595708,3.0464883693202736,0.0002329513399956847,0.00027284161712160177,-7.212809031534613,12.800943082184403,9916840823.178125,0.0,813344761909.6,0.055197609669345185,-0.7030736959032319,0.054903307267268976,0.7068424356721068,0.0002329513399956847,0.00027284161712160177,-7.212809031534613
28.5,-80.17163584593328,24.960907456171174,290.73330484748254,302.6159160434026,0,8.482289073159915,222.58350394593364,11.027316673788128,19.69111016158275,-0.014799565758351963,0.0024432187178646467,5.525960902832516,2.935230730554535,-0.07361778697969272,0.012744518911133582,41.17630391472886,13.110420218460963,9916840823.178125,0.0,813344761909.6,0.05785927015191502,-0.7037849213125305,0.0577024278679983,0.705697895142632,-0.07361778697969272,0.012744518911133582,41.17630391472886
28.7,-80.17310710907896,24.96116240114929,291.2424276773347,303.1054905661195,0,8.448956378632584,222.3857508088605,11.027189393080667,19.708080922577825,-0.007356315728372946,0.0012747248905853371,2.5456141492608797,2.8081712803345242,0.03721625014989522,-0.005842469136396569,-14.901733767858234,13.318582081502617,9916840823.178125,0.0,813344761909.6,0.06067682811868258,-0.7034724079532905,0.06049913212633566,0.7055386231736823,0.03721625014989522,-0.005842469136396569,-14.901733767858234
28.8,-80.1745688663897,24.961428643591844,291.47695240059505,303.33125159399475,0,8.432008223328172,222.28404631583962,11.027130761899851,19.715898413353166,-0.01461757310750024,0.002662424425530181,2.3452472326033225,2.93316300185762,-0.07261257379127191,0.013876995349448243,-2.003669166575544,12.058431366203205,9916840823.178125,0.0,813344761909.6,0.06381253739046398,-0.7020054115518042,0.06340954058140057,0.7064669789785142,-0.07261257379127191,0.013876995349448243,-2.003669166575544
28.9,-80.1760219156508,24.96170574761534,291.69850797337904,303.5445614698852,0,8.414878653080097,222.1804625388317,11.027075373006655,19.723283599112634,-0.01453049261087389,0.0027710402349612785,2.215555727839889,2.0214976516237075,0.0008708049662635107,0.0010861580943109983,-1.2969150476343627,4.888826186762191,9916840823.178125,0.0,813344761909.6,0.06674764880783525,-0.7016164381530817,0.06630348975878932,0.7063164817118561,0.0008708049662635107,0.0010861580943109983,-1.2969150476343627
29.1,-80.1774668048382,24.961992757094748,292.1051671540734,303.93577601815053,0,8.380107565583263,221.96767563099903,11.02697370821148,19.736838905135777,-0.007224445937055077,0.0014350473970381268,2.0332959034717812,2.2348960932459194,0.03653023336909355,-0.0066799641896156635,-0.9112991218405256,7.1984120107672975,280873494009.5031,0.0,2864151800739.875,0.0693408710393848,-0.7024352777713025,0.06909013937719093,0.7049844514503089,0.03653023336909355,-0.0066799641896156635,-0.9112991218405256
29.3,-80.17890209211933,24.962291345663708,292.2986925033311,304.12217605607185,0,8.34302152353511,221.74742791358565,11.026925326874167,19.74328975011104,-0.007176436405629286,0.0014929428447985112,0.9676267462884914,2.1311913999435985,0.0002400476571289573,0.00028947723880192307,-5.328345785916468,8.583251996773601,280873494009.5031,0.0,2864151800739.875,0.07266342072924177,-0.700722389264655,0.0721150568857754,0.7060506915523275,0.0002400476571289573,0.00028947723880192307,-5.328345785916468
29.4,-80.18032902585367,24.96259984671459,292.659951284066,304.4698074348148,0,8.3270594822842,221.63451843546756,11.026835012178983,19.755331709468866,-0.014269337343364745,0.003085010508812113,3.612587807348936,2.1007466050920356,-0.0709290093773561,0.01592067664013636,26.44961061060501,8.797236185533055,280873494009.5031,0.0,2864151800739.875,0.07528866485782756,-0.7016813281584212,0.07498502668509693,0.7045226585645029,-0.0709290093773561,0.01592067664013636,26.44961061060501
29.6,-80.18174647459352,24.962918873398706,293.0253025614475,304.8214030012062,0,8.291445561402941,221.40315333108774,11.026743674359638,19.767510085381584,-0.007087243699288492,0.0015951334205865691,1.8267563869076493,1.8598293921241005,0.035910468220380756,-0.007449385441127614,-8.929157102206307,9.84948500584623,280873494009.5031,0.0,2864151800739.875,0.07826580325523012,-0.7013805213219055,0.07795517936134823,0.7041752753127346,0.035910468220380756,-0.007449385441127614,-8.929157102206307
29.7,-80.18315482708473,24.963249938626426,293.23163560289436,305.02015389785504,0,8.273820013931235,221.28470798768143,11.026692091099276,19.77438785342981,-0.014083524912109924,0.003310652277193142,2.06333041446844,2.3851891689361353,-0.06996281212821581,0.017155188566066095,2.365740275607959,14.315300105376423,280873494009.5031,0.0,2864151800739.875,0.0817325631151272,-0.6999336098831818,0.08116148955962327,0.704858526581748,-0.06996281212821581,0.017155188566066095,2.365740275607959
29.9,-80.18455422226728,24.96359201506737,293.39737397806874,305.179885836772,0,8.235999163953377,221.04231803929207,11.026650656505483,19.779912465935624,-0.006996975912727546,0.0017103822047204236,0.8286918758719283,2.0540908698223324,0.03543274499691201,-0.00800135036236362,-6.173192692982581,10.662685842250207,280873494009.5031,0.0,2864151800739.875,0.08492631685426115,-0.6989749500661038,0.08419134525341658,0.7050768449396685,0.03543274499691201,-0.00800135036236362,-6.173192692982581
30.0,-80.1859439792761,24.963943545150507,293.7568164588709,305.52586028882047,0,8.219808180708444,220.91838420715567,11.026560795885281,19.791893881962363,-0.013897570088232471,0.0035153008313670354,3.5944248080215346,2.021768081414605,-0.06900594175504828,0.01804918626646586,27.65732932149567,9.46104454242094,280873494009.5031,0.0,2864151800739.875,0.08754204979401953,-0.7002879357291429,0.08719361130836467,0.7030863892418078,-0.06900594175504828,0.01804918626646586,27.65732932149567
30.2,-80.18732424744162,24.96430604106439,294.1482390194317,305.90261532767084,0,8.184068900255577,220.6650663675043,11.02646294024514,19.804941300647723,-0.006901340827596438,0.0018124795694163319,1.9571128028039266,1.9359580295977268,0.03498114630318029,-0.008514106309753548,-8.186560026088069,9.049331158467307,280873494009.5031,0.0,2864151800739.875,0.09071773093929121,-0.7000051154571751,0.09038758895267586,0.7025618943483452,0.03498114630318029,-0.008514106309753548,-8.186560026088069
30.3,-80.18869599629055,24.964680904757277,294.31474863610697,306.0631201615064,0,8.165869863734368,220.53569361851822,11.026421312840974,19.810491621203564,-0.013717488489248614,0.003748636928868567,1.6650961667528226,2.0433736953671873,-0.06816147661652079,0.019361573594522077,-2.9201663605109993,8.083251730976071,280873494009.5031,0.0,2864151800739.875,0.09443557746309487,-0.6978273023599826,0.09363251037752422,0.703812425856921,-0.06816147661652079,0.019361573594522077,-2.9201663605109993
30.4,-80.19005864554647,24.965066717937344,294.4781755874701,306.2206654671303,0,8.147617728507905,220.40451928982168,11.026380456103132,19.815939186249004,-0.013626492559240267,0.003858131800669267,1.6342695136313872,1.4442581052115224,0.0009099593000834828,0.0010949487180070203,-0.30826653121436054,4.085976766202536,280873494009.5031,0.0,2864151800739.875,0.0976612721419668,-0.6973474361613506,0.09681863212329961,0.7034166487058554,0.0009099593000834828,0.0010949487180070203,-0.30826653121436054
30.6,-80.19141120513056,24.965462132072844,294.7513322543057,306.4837427927074,0,8.110517626063595,220.13678929290208,11.026312166936423,19.825044408476856,-0.0067627979204586556,0.0019770706775012743,1.3657833341778576,1.1651975483929755,0.03431847319390757,-0.00940530561583983,-1.3424308972676289,2.4845149322440547,280873494009.5031,0.0,2864151800739.875,0.10047695386990639,-0.6981608841213451,0.09995994566715177,0.7017718795207931,0.03431847319390757,-0.00940530561583983,-1.3424308972676289
30.7,-80.19275559516225,24.965869708392308,294.81120331960204,306.54170728139684,0,8.091175055477708,220.00024552374597,11.026297199170099,19.827040110653403,-0.013443900316900967,0.004075763194642066,0.5987106529636449,0.8432570558840604,-0.06681102396442454,0.020986925171408363,-7.6707268121422905,2.4070788148439055,280873494009.5031,0.0,2864151800739.875,0.10490614037872975,-0.6912093852051145,0.1024734980203381,0.7076181666115431,-0.06681102396442454,0.020986925171408363,-7.6707268121422905
30.91,-80.19408988595985,24.966287957884745,294.92917786854395,306.65555195568965,0,8.050433925457158,219.70772426727808,11.026267705532863,19.83097259561813,-0.006353765702862148,0.001991664249700867,0.561783566390007,0.5638993283874827,0.0337625457811371,-0.009924280690196146,-0.1758432693982748,2.7099308038404155,280873494009.5031,0.0,2864151800739.875,0.10761543846932513,-0.6948124353425756,0.10634747223242728,0.7030965881343382,0.0337625457811371,-0.009924280690196146,-0.1758432693982748
31.11,-80.19541607804122,24.966717731299802,294.9401807885052,306.66651593834086,0,8.010577571516478,219.42189622015724,11.026264954802873,19.83133935961684,-0.006630960406823784,0.0021488670752845074,0.055014599806213677,0.3409198410437007,-0.0013859735198081854,0.0007860141279182051,-2.5338448329189758,2.4710860028571653,4.852193210331994,0.0,1.1688193403209393,0.11707593171042989,-0.6530740772791483,0.10317817464433604,0.7410409840738815,-0.0013859735198081854,0.0007860141279182051,-2.5338448329189758
31.21,-80.19673148212443,24.967158429148036,294.9638944690409,306.6897027628832,0,7.990821341109457,219.27635088452203,11.02625902638274,19.832129815634694,-0.013154040832148252,0.004406978482336336,0.23713680535706436,0.2807331303662892,-0.06523080425324375,0.02258111407051797,1.8212220555084808,0.9850609131073824,4.404714808107461,0.0,1.1714865924523306,0.11707387557994184,-0.6772044847734765,0.11042514533343747,0.7179791645566547,-0.06523080425324375,0.02258111407051797,1.8212220555084808
31.3,-80.19803922912844,24.96761055170104,294.9864334018795,306.71175876385917,0,7.973049121891111,219.1438674006834,11.02625339164953,19.832881113395985,-0.014530522266732605,0.005023583922260231,0.25043258709539906,0.2321953043761905,-0.015294238162048395,0.006851171554709948,0.14773090820371917,0.9933287571355889,4.404714808107461,0.0,1.1714865924523306,0.12067775256423148,-0.6756334434343946,0.11349637279601923,0.7183835351058485,-0.015294238162048395,0.006851171554709948,0.14773090820371917
31.5,-80.19933536017359,24.96807376899174,295.04600588091466,306.7694308209802,0,7.933645564074849,218.8444214991993,11.026238498529771,19.834866862697154,-0.006480655225757938,0.0023160864535043484,0.2978623951759129,0.3980498611069153,0.040249335204873476,-0.013537487343779459,0.23714904040257,1.0524643574571098,4.404714808107461,0.0,1.1714865924523306,0.12214496843924938,-0.6886253722573046,0.1193554162714965,0.7047197939430403,0.040249335204873476,-0.013537487343779459,0.23714904040257
31.6,-80.20062436658249,24.968547940814553,295.077889702197,306.8004718480146,0,7.913966283155863,218.6921055835275,11.02623052757445,19.8359296567399,-0.012890064088963798,0.004741718228125013,0.3188382128234889,0.37264583421613184,-0.06409408863205769,0.024256317746206298,0.20975817647575704,1.6829712037142754,4.404714808107461,0.0,1.1714865924523306,0.12662133927350644,-0.6810078200568437,0.12128431808413599,0.7109750344765103,-0.06409408863205769,0.024256317746206298,0.20975817647575704
31.8,-80.20190231988035,24.969033206725644,295.2548298639261,306.9710284586839,0,7.87575248962879,218.38232166987942,11.026186292534017,19.841827662130868,-0.006389766489292037,0.002426329555458304,0.8847008086453942,0.35658264446078075,0.03250148799835892,-0.011576943363333585,2.829312979109537,2.2141145732745344,4.404714808107461,0.0,1.1714865924523306,0.12809473750095818,-0.6928063131718465,0.12710893993767772,0.698179395314495,0.03250148799835892,-0.011576943363333585,2.829312979109537
32.0,-80.20317070179594,24.969530436043147,295.23276746644075,306.9501800402003,0,7.835579387809247,218.06571433346755,11.02619180813339,19.84109224888136,-0.0063419095779693405,0.00248614658751479,-0.11031198742671261,0.3089931645569707,0.00023928455661348464,0.0002990851602824318,-4.975063980360552,2.622911505330267,4.404714808107461,0.0,1.1714865924523306,0.13530954606806717,0.6730532239726229,-0.1272118576331456,0.7158965202600416,0.00023928455661348464,0.0002990851602824318,-4.975063980360552
32.1,-80.20443224426191,24.970037397847406,295.24977201221134,306.966906347471,0,7.815789707880017,217.90486942364905,11.026187556996947,19.84165906707371,-0.01261542465968528,0.005069618042590135,0.17004545770589388,0.25620646102517947,-0.06273515081715851,0.025834714550753084,2.8035744513260252,2.686866856962983,4.404714808107461,0.0,1.1714865924523306,0.13952342002763835,-0.6660007103566518,0.12881311034470977,0.7213760819929839,-0.06273515081715851,0.025834714550753084,2.8035744513260252
32.2,-80.2056840194156,24.970555270981187,295.24392750582984,306.9616541339181,0,7.795785208116568,217.74233985920674,11.026189018123542,19.841464250194328,-0.012517751536904419,0.005178731337807034,-0.058445063814928366,0.136228432913129,0.0009767312278085999,0.001091132952168972,-2.28490521520819,2.478409059177365,4.404714808107461,0.0,1.1714865924523306,0.1525674035258379,0.6102450417924874,-0.12124919874187436,0.7678690045532004,0.0009767312278085999,0.001091132952168972,-2.28490521520819
32.41,-80.20692537959958,24.971084844049987,295.25544075400126,306.9730953226633,0,7.754066994823455,217.39557644805382,11.0261861398115,19.841848025133373,-0.005911238971345247,0.0025217765180941183,0.05482499129243642,0.24942204926652273,0.0314595836455208,-0.012652165808157118,0.5393812147969913,2.26671507220001,4.404714808107461,0.0,1.1714865924523306,0.14961578581286436,-0.6512078411670877,0.13310200971192096,0.7320022672429013,0.0314595836455208,-0.012652165808157118,0.5393812147969913
32.6,-80.20815909736227,24.9716244454222,295.20133846553375,306.92142487137255,0,7.715751672871702,217.07552064172225,11.026199665383617,19.84004461551779,-0.006493251382565873,0.0028400072221793676,-0.2847488866710687,0.21810380363714338,-0.003063223216950585,0.0016748984425539015,-1.7872309366499812,3.050391786183602,4.404714808107461,0.0,1.1714865924523306,0.14653227858183374,0.6834691698069946,-0.14293058855989837,0.7006918239218113,-0.003063223216950585,0.0016748984425539015,-1.7872309366499812
32.7,-80.20938225545855,24.97217558322947,295.1337027513293,306.8567370205059,0,7.6952274989805325,216.90467764296184,11.026216574312167,19.837790091710975,-0.012231580962804682,0.005511378072675576,-0.6763571420446982,0.24197110221177734,-0.05738329580238727,0.026713708504961707,-3.91608255373624,2.768666609664751,4.404714808107461,0.0,1.1714865924523306,0.15002434486303,0.6844356975556217,-0.14707803953655912,0.6981464904631768,-0.05738329580238727,0.026713708504961707,-3.91608255373624
32.8,-80.21059792685035,24.97273671536685,295.13329482437376,306.85670811101494,0,7.675401213701284,216.732194442381,11.026216676293906,19.837776494145793,-0.012156713918046316,0.005611321373813247,-0.004079269555177466,0.2640058536558922,0.0007486704475837071,0.0009994330113767594,6.72277872489559,3.005024012883404,4.404714808107461,0.0,1.1714865924523306,0.21219986166822435,0.14389767600377076,-0.03160794374988622,0.9660567351044163,0.0007486704475837071,0.0009994330113767594,6.72277872489559
33.0,-80.21180379470731,24.973310639493167,295.0974534997271,306.822598213236,0,7.635483146710776,216.38233817188154,11.026225636625067,19.836581783324235,-0.00602933928476537,0.0028696206315892018,-0.17920662323319647,0.23668917528626357,0.03063687316640429,-0.01370850371112003,-0.8756367683900826,2.6851655691813363,4.404714808107461,0.0,1.1714865924523306,0.15863988506803142,0.6767737738945312,-0.15283890885343235,0.702460613682111,0.03063687316640429,-0.01370850371112003,-0.8756367683900826
33.2,-80.21300125240724,24.973894013031227,295.1305014945133,306.8547439172087,0,7.596380165263412,216.02601402597276,11.026217374626372,19.837683383150445,-0.005987288499653602,0.0029168676902990437,0.1652399739307929,0.1588280180942182,0.00021025392555883805,0.00023623529354920632,1.7222329858199226,2.041457826595478,4.404714808107461,0.0,1.1714865924523306,0.16207794280603532,-0.6750025841576616,0.15567697251613327,0.7027566663251609,0.00021025392555883805,0.00023623529354920632,1.7222329858199226
33.3,-80.21418921353684,24.97449096316811,295.14526712790916,306.8693045223965,0,7.576863344193286,215.8454462506239,11.026213683218023,19.838175570930304,-0.01187961129602467,0.005969501368810254,0.14765633395882943,0.220692268182332,-0.058923227963714034,0.030526336785113843,-0.17583639971964465,0.7630654348260493,4.404714808107461,0.0,1.1714865924523306,0.17030552128954157,-0.6564532586464565,0.15566002245490265,0.718216614984703,-0.058923227963714034,0.030526336785113843,-0.17583639971964465
33.5,-80.21536792189222,24.97509630685547,295.20268872113536,306.92489002127013,0,7.538222943864554,215.4795394208042,11.026199327819716,19.840089624037844,-0.005893541776913396,0.003026718436807087,0.28710796613097095,0.341000031871204,0.029930347595555944,-0.014713914660015629,0.6972581608606977,3.0407646707591836,4.404714808107461,0.0,1.1714865924523306,0.16807721910525125,-0.6793299247926702,0.16424340472753673,0.6951870292968196,0.029930347595555944,-0.014713914660015629,0.6972581608606977
33.61,-80.21653721147943,24.975715460809784,295.23822909744433,306.959429119835,0,7.517079859648817,215.27559793865814,11.026190442725639,19.841274303248145,-0.010629905338274483,0.005628672311950531,0.32309433008157035,0.459442250959427,-0.04305785055782829,0.023654126137667795,0.32714876318726893,4.23462819471106,4.404714808107461,0.0,1.1714865924523306,0.17361868050964058,-0.6733630400017532,0.16727546710610489,0.6988974804949029,-0.04305785055782829,0.023654126137667795,0.32714876318726893
33.7,-80.21769712651523,24.976342101512714,295.1679631821102,306.8922010839127,0,7.498826588273335,215.10732521075317,11.026208009204472,19.83893210607034,-0.012887944842216021,0.006962674476992991,-0.7807323926012898,0.5402505266572909,-0.02508932782157169,0.014822246278249,-12.264741363142427,5.506852445787608,-175697664504384.25,0.0,-456901150221.88245,0.1749571970123198,0.6790711880931359,-0.17170535770138215,0.6919317674828996,-0.02508932782157169,0.014822246278249,-12.264741363142427
33.9,-80.21884778142736,24.976983275211307,295.31947450241734,307.0382797849381,0,7.4614737364549,214.72886979090566,11.026170131374395,19.84398248341391,-0.00575327456061826,0.0032058684929659595,0.7575566015356278,0.7255876710948201,0.035673351407989565,-0.01878402992013556,7.691444970684752,6.690392687314139,-87901299611768.48,0.0,-1120627907347.7068,0.17857908541582093,-0.6814047229986366,0.17703327182799142,0.6873545914541319,0.035673351407989565,-0.01878402992013556,7.691444970684752
34.1,-80.21998897085528,24.9776313679184,295.20902328764936,306.9323966766683,0,7.421697941132948,214.3442404412284,11.026197744178088,19.840300776254978,-0.005705947139631381,0.003240463535458769,-0.5522560738398773,0.7849836671269164,0.00023663710493439076,0.00017297521246404618,-6.549063376877432,8.458303835580601,-87901299611768.48,0.0,-1120627907347.7068,0.18165329442092978,0.6795854702786841,-0.17950771712344277,0.6877082584244956,0.00023663710493439076,0.00017297521246404618,-6.549063376877432
34.2,-80.22112187965084,24.97829363541285,295.08764336907757,306.81600482648,0,7.401227093044527,214.14963186814148,11.02622808915773,19.836254778969252,-0.01132908795554483,0.00662267494451631,-1.2137991857178858,1.1380452415765476,-0.056231408159133696,0.03382211409057493,-6.615431118779991,12.338177575919932,-87901299611768.48,0.0,-1120627907347.7068,0.18585264117622644,0.678816823648729,-0.18385418478765223,0.6861954200046362,-0.056231408159133696,0.03382211409057493,-6.615431118779991
34.4,-80.22224523287856,24.978967113239896,295.2116960799496,306.9356657846216,0,7.364120335968361,213.75587017127594,11.026197075980011,19.840389869331652,-0.005616766138629834,0.003367389135231563,0.6202635543601919,1.063771153458126,0.02856160908457559,-0.016276429046424082,9.170313700390585,16.13110004766199,-87901299611768.48,0.0,-1120627907347.7068,0.18962453050438258,-0.6778754047331603,0.18763301228252274,0.6850703071879799,0.02856160908457559,-0.016276429046424082,9.170313700390585
34.5,-80.22335875581643,24.97964709671145,294.95708165547705,306.69113139746383,0,7.342487791137911,213.5567345479524,11.02626072958613,19.831902721849236,-0.011135229378709097,0.006799834715529488,-2.5461442447254607,1.197935027590643,-0.05518463240079185,0.034324455802978764,-31.66407799085608,16.51511503121467,-87901299611768.48,0.0,-1120627907347.7068,0.19189691181377114,0.6789616478384575,-0.19091608966801718,0.6824497803550806,-0.05518463240079185,0.034324455802978764,-31.66407799085608
34.61,-80.22446211395628,24.98033794090643,294.9995453328247,306.73231546690477,0,7.321987578074132,213.33596313235807,11.026250113666794,19.833318177760823,-0.0100305285440331,0.0062804017725555834,0.3860334304332292,0.9999152730963887,0.010042734860690933,-0.00472211766339916,26.656160683260957,18.08496986221084,-87901299611768.48,0.0,-1120627907347.7068,0.19818096716378572,-0.6691327353692842,0.19219851414688713,0.6899604465989155,0.010042734860690933,-0.00472211766339916,26.656160683260957
34.8,-80.22555970300442,24.981042310671103,294.76715725109733,306.50916772338314,0,7.283701196069506,212.95041498136132,11.026308210687226,19.82557190836991,-0.005776784463912054,0.0037072092877522473,-1.2230951669862193,0.9700055939834588,0.02238812673747946,-0.013543118341070352,-8.469097881155093,16.945025416766544,-1032481765164.425,0.0,282702089630.0607,0.19955203120922083,0.6766221107077195,-0.19843528752509446,0.6804299690684837,0.02238812673747946,-0.013543118341070352,-8.469097881155093
34.9,-80.22664433888214,24.981753970619394,294.78949675132793,306.5309933566706,0,7.265092411759639,212.74536750193124,11.026302625812168,19.8263165583776,-0.010846358777172172,0.007116599482905782,0.2233950023060029,0.4864856297031877,-0.05069574313260047,0.03409390195153486,14.464901692922018,10.954487335258122,-2064963530491.392,0.0,565404179260.7612,0.20821103394952778,-0.6575810250303772,0.1964708962662634,0.6968748437000709,-0.05069574313260047,0.03409390195153486,14.464901692922018
35.1,-80.22772224772625,24.98248011513324,294.69535577646496,306.44080088326785,0,7.226693358820713,212.33091568811068,11.026326161055884,19.823178525882167,-0.005389544220548638,0.003630722569223314,-0.4707048743148267,0.4311984567289354,0.027284072783117286,-0.01742938456841209,-3.470499383104099,6.098290715249294,-2064963530491.392,0.0,565404179260.7612,0.20796154364035954,0.6715858620579991,-0.20511030657114085,0.6809215728619747,0.027284072783117286,-0.01742938456841209,-3.470499383104099
35.3,-80.2287911958896,24.98321593836293,294.6696729713604,306.4164424185246,0,7.189266982055608,211.91071624109645,11.02633258175716,19.822322432378677,-0.00534474081675296,0.0036791161484651344,-0.12841402552283218,0.21751529157336594,0.0002240170189783939,0.00024196789620910605,1.7114542439600093,4.930817828957698,-2064963530491.392,0.0,565404179260.7612,0.21516623796274478,0.6579661277637299,-0.20456863147433627,0.6920518331550606,0.0002240170189783939,0.00024196789620910605,1.7114542439600093
35.4,-80.22984721994162,24.983958654227468,294.6805746827561,306.4272632621496,0,7.170903910944101,211.69848445965792,11.02632985632931,19.822685822758537,-0.01056024052019196,0.007427158645363257,0.10901711395717784,0.1877788153313132,-0.05215499703438925,0.0374804249689807,2.3743113948000665,2.117421908853832,-2064963530491.392,0.0,565404179260.7612,0.2255285471597876,-0.6332764924039437,0.20039598730195965,0.7126985385545744,-0.05215499703438925,0.0374804249689807,2.3743113948000665
35.5,-80.2308938066688,24.984711946414908,294.66515865927164,306.41277368895055,0,7.152355252020797,211.48484386190574,11.026333710335182,19.822171955309056,-0.010465867271847024,0.007532921874400138,-0.15416023484476463,0.10064803171918943,0.0009437324834493358,0.0010576322903687915,-2.631773488019387,1.463604229359367,-2064963530491.392,0.0,565404179260.7612,0.2258736177393038,0.6443248175566496,-0.20776893407664365,0.7004703479253098,0.0009437324834493358,0.0010576322903687915,-2.631773488019387
35.7,-80.23193435307525,24.985477918382713,294.6501965513905,306.39872017457776,0,7.115656751971413,211.05337426006213,11.026337450862153,19.821673218379683,-0.005202732032216699,0.0038298598390262297,-0.07481053940580189,0.17110228520635157,0.026315676198151252,-0.01851531017686928,0.39674847719480805,1.9326584895374974,-2064963530491.392,0.0,565404179260.7612,0.22990044717595054,0.6422631857933423,-0.21090273878197213,0.7001170040337172,0.026315676198151252,-0.01851531017686928,0.39674847719480805
