time,position_x,position_y,position_z,ground_station_distance,comm_range_status,wind_speed,wind_angle,battery_voltage,battery_current,velocity_x,velocity_y,velocity_z,velocity_total,acceleration_x,acceleration_y,acceleration_z,acceleration_total,angular_x,angular_y,angular_z,orientation_w,orientation_x,orientation_y,orientation_z,linear_acceleration_x,linear_acceleration_y,linear_acceleration_z
0.0,-86.03591524267364,21.496107473744356,269.3324017,283.5563505789589,0,7.693324017,180.0,11.032666899575,18.977746723333333,-0.010836498987814025,-0.004466925492074836,0.012359152323995204,0.030513115269633406,-0.10792326542414804,-0.043652618135325866,0.2606566705736669,0.24136354528413434,2327959613367111.5,0.0,-12537059227904.0,0.17846456834196275,0.3873655869506696,0.07670748366910882,-0.9012293059161102,-0.10792326542414804,-0.043652618135325866,0.2606566705736669
0.2,-86.0380825424712,21.49521408864594,269.3348735304648,283.55928829077925,0,7.733346068691314,180.59998222238025,11.032666281617383,18.97782911768216,-0.010836498987814025,-0.004466925492074836,0.012359152323995204,0.030513115269633406,-0.10792326542414804,-0.043652618135325866,0.2606566705736669,0.24136354528413434,2327959613367111.5,0.0,-12537059227904.0,0.17846456834196275,0.3873655869506696,0.07670748366910882,-0.9012293059161102,-0.10792326542414804,-0.043652618135325866,0.2606566705736669
0.3,-86.04024542502422,21.49433086991538,269.3387160124029,283.56352733656286,0,7.753378160529021,180.89994000119998,11.032665320996898,18.97795720041343,-0.021628825530228827,-0.008832187305607421,0.03842481938136189,0.030513115269633406,-0.10792326542414804,-0.043652618135325866,0.2606566705736669,0.24136354528413434,2327959613367111.5,0.0,-12537059227904.0,0.1679055766432075,0.48096350448769504,0.09441698191868929,-0.8553170512788768,-0.10792326542414804,-0.043652618135325866,0.2606566705736669
0.5,-86.04240411263736,21.49345787702959,269.3430996973098,283.56827994602816,0,7.793389335514455,181.4997222376539,11.032664225075672,18.97810332324366,-0.010793438065661576,-0.004364964428944518,0.0219184245344195,0.030513115269633406,0.05417693732283625,0.022336114383314516,-0.08253197423471195,0.24136354528413434,2327959613367111.5,0.0,-12537059227904.0,0.16367340577898398,0.5057325969601555,0.09839082128840006,-0.8412875863216092,0.05417693732283625,0.022336114383314516,-0.08253197423471195
0.6,-86.04455830771046,21.49259511923997,269.3474454367244,283.5729959333536,0,7.813402467326133,181.79952003839853,11.03266313864082,18.978248181224146,-0.02154195073103438,-0.00862757789622748,0.043457394145889346,0.03776749867758631,-0.10748512665372806,-0.042626134672829635,0.2153896961146985,0.24136354528413434,2327959613367111.5,0.0,-12537059227904.0,0.16236477367811752,0.5049792713983512,0.09736325411188249,-0.8421128264521263,-0.10748512665372806,-0.042626134672829635,0.2153896961146985
0.81,-86.04670821273959,21.491742665571994,269.35001968225174,283.5760287821961,0,7.855323107926513,182.42881919217493,11.032662495079437,18.97833398940839,-0.010237642995848867,-0.0040593031808303474,0.012258312034960212,0.03111159623828591,0.05383003683421671,0.02175368912093872,-0.14856705767109105,0.23520195568324515,2327959613367111.5,0.0,-12537059227904.0,0.17136412258839992,0.40000641073982496,0.07640914461231979,-0.8971013607592867,0.05383003683421671,0.02175368912093872,-0.14856705767109105
0.9,-86.04885354031804,21.490900454824803,269.35422728558433,283.58061244481524,0,7.873299371251866,182.698380291575,11.032661443178604,18.978474242852812,-0.02383697309385172,-0.009357897191009105,0.04675114813987119,0.0312819317092974,-0.15110366775558728,-0.05887326677976399,0.383253734499011,0.25077287697957285,2327959613367111.5,0.0,-12537059227904.0,0.1599886149228324,0.5008132985944626,0.09478326351008873,-0.8453436082471935,-0.15110366775558728,-0.05887326677976399,0.383253734499011
1.1,-86.0509944731374,21.490068575570763,269.3537903985242,283.58078407968827,0,7.913094505659592,183.29704301743396,11.032661552400368,18.97845967995081,-0.010704664096792268,-0.004159396270200231,-0.0021844353005917574,0.026500273359642314,0.06566154498529723,0.02599250460404436,-0.24467791720231466,0.21780078925771718,2402623806155824.5,0.0,-6192228226770.936,0.18343074424511774,-0.0922373040472834,-0.017290151313473223,-0.9785430457958038,0.06566154498529723,0.02599250460404436,-0.24467791720231466
1.2,-86.0531308439886,21.4892470161551,269.35495257300516,283.58247396653377,0,7.93297394030789,183.59616122861277,11.032661261856749,18.97849841910017,-0.021363708512041085,-0.008215594156624217,0.01162174480953128,0.028113257191155688,-0.10659044415248832,-0.04056197886423991,0.13806180110123056,0.22096729321285732,2402623806155824.5,0.0,-6192228226770.936,0.1775196830133055,0.2288471204637997,0.04248592360292955,-0.9561959547571244,-0.10659044415248832,-0.04056197886423991,0.13806180110123056
1.4,-86.05526251576296,21.488435764695442,269.359482061114,283.58736159163004,0,7.972681049899613,184.19390487759242,11.032660129484722,18.978649402037135,-0.010658358871822317,-0.004056257298294953,0.022647440544290024,0.020393710285490918,0.05352674820109385,0.020796684291646324,0.05512847867379373,0.14914276052483624,2402623806155824.5,0.0,-6192228226770.936,0.15395149087377125,0.5158780333042716,0.09484584808381617,-0.837360769509249,0.05352674820109385,0.020796684291646324,0.05512847867379373
1.5,-86.05738968145323,21.487634899081453,269.3604082151129,283.588826095377,0,7.992480347098327,184.49250374910727,11.032659897946221,18.978680273837096,-0.021271656902683827,-0.008008656139892871,0.009261539988756331,0.026833776238417477,-0.106132980308615,-0.03952398841597915,-0.1338590055553368,0.1590385411720813,2402623806155824.5,0.0,-6192228226770.936,0.17572822046693845,0.18915295423310005,0.03442789445742789,-0.9654819897437973,-0.106132980308615,-0.03952398841597915,-0.1338590055553368
1.7,-86.05951213415459,21.486844396974433,269.3622850874611,283.59119298463264,0,8.031987549008603,185.08908923171782,11.032659428728135,18.978742836248703,-0.010612263506786236,-0.003952510535096821,0.00938436174095614,0.02459603015770649,0.053296966979487964,0.020280728023980253,0.0006141087609990403,0.15390709831634536,2402623806155824.5,0.0,-6192228226770.936,0.16681444517003788,0.3337576023501446,0.06013582094549834,-0.9258307009358169,0.053296966979487964,0.020280728023980253,0.0006141087609990403
1.8,-86.06162972706568,21.486064265806924,269.3660495308367,283.5953520577552,0,8.051719642160014,185.38704932800138,11.03265848761729,18.978868317694555,-0.021175929110910357,-0.007801311675095228,0.03764443375587231,0.028345937283088242,-0.1056366560412411,-0.038488011399984035,0.28260072014916143,0.19988161755113448,2402623806155824.5,0.0,-6192228226770.936,0.15276737931583784,0.4852079061473852,0.08653369101854075,-0.8565905299194878,-0.1056366560412411,-0.038488011399984035,0.28260072014916143
2.0,-86.06374262348974,21.48529456278232,269.3678748981585,283.5976687209572,0,8.091017410571707,185.98223801800413,11.03265803127546,18.97892916327195,-0.0105644821203299,-0.003848515123010544,0.009126836609141266,0.02628870016626907,0.053057234952902294,0.019763982760423425,-0.14258798573365525,0.19602986615584678,2402623806155824.5,0.0,-6192228226770.936,0.16378409644949812,0.32927336760222325,0.0581074224846745,-0.9281041679630041,0.053057234952902294,0.019763982760423425,-0.14258798573365525
2.1,-86.06585059683552,21.48453527487452,269.3716740426079,283.6018594287617,0,8.110636540118279,186.27944015899064,11.032657081489347,18.979055801420262,-0.021079733457725052,-0.0075928790780110875,0.03799144449374122,0.03219227393048367,-0.10515251337395143,-0.0374436395500054,0.2886460788459993,0.2473770254129199,2402623806155824.5,0.0,-6192228226770.936,0.14935760113647886,0.4885966174020596,0.08531296031095537,-0.8553872522132903,-0.10515251337395143,-0.0374436395500054,0.2886460788459993
2.3,-86.06795379061832,21.483786428827504,269.37344801765045,283.60412593250703,0,8.149689527246881,186.87299398884537,11.032656637995586,18.979114933921682,-0.010515968914006649,-0.003744230235085416,0.008869875212838009,0.026005653704272092,0.05281882271859209,0.019243244214628384,-0.14560784640451624,0.2178400223404596,2402623806155824.5,0.0,-6192228226770.936,0.16069397514748338,0.32464306643869245,0.056070828149949827,-0.9303979729100669,0.05281882271859209,0.019243244214628384,-0.14560784640451624
2.4,-86.0700519684611,21.483048031154993,269.3772704770579,283.6083374095912,0,8.169177957624848,187.16931929764107,11.032655682380735,18.979242349235264,-0.02098177842782432,-0.007383976725101597,0.038224594074449635,0.02834630928507022,-0.10465809513817663,-0.03639746490016178,0.293547188616116,0.2184355616071539,2402623806155824.5,0.0,-6192228226770.936,0.14597124098449005,0.49140388472820373,0.08394494088921894,-0.8544986049014848,-0.10465809513817663,-0.03639746490016178,0.293547188616116
2.61,-86.07214523409539,21.48232010814009,269.37884927492956,283.6104171202338,0,8.209882119087215,187.79054958741378,11.032655287681267,18.97929497583099,-0.009967931591840323,-0.003466300070967134,0.007518085103204917,0.024881382346527477,0.052446889695161904,0.01865560311492602,-0.14622147129164154,0.17694362252577972,2402623806155824.5,0.0,-6192228226770.936,0.1586392431820224,0.3003227934905958,0.05072806147696769,-0.9391839404565162,0.052446889695161904,0.01865560311492602,-0.14622147129164154
2.7,-86.07423348136243,21.481602685834908,269.37967286571427,283.6117788043991,0,8.227259602034804,188.0563308041621,11.03265508178357,18.97932242885714,-0.02320274741154857,-0.007971358946474195,0.009151008718946358,0.028017403649539113,-0.1470535091078689,-0.05005620972785608,0.018143595730460396,0.16899849851141,-0.894710364086636,0.0,0.15259682362876106,0.16208857183049818,0.17513445271957653,0.02924505537036601,-0.9706698435044473,-0.1470535091078689,-0.05005620972785608,0.018143595730460396
2.9,-86.07631661421405,21.48089576006021,269.38455660423193,283.6169961433617,0,8.26575001625199,188.64590342175129,11.032653860848942,18.979485220141065,-0.01041566425811881,-0.0035346288734849954,0.024418692588312783,0.02234645102162832,0.06393541576714888,0.022183650364946027,0.07633841934683222,0.1198257961732476,5.946505803518386,0.0,-0.1496827174260716,0.1367716273742399,0.5355722779121754,0.0883993573248079,-0.828638287011846,0.06393541576714888,0.022183650364946027,0.07633841934683222
3.0,-86.07839468671382,21.48019936640509,269.3865960456952,283.6195111866403,0,8.28490637377963,188.94011988577776,11.032653350988577,18.979553201523174,-0.02078072499770654,-0.006963936551223065,0.020394414632960416,0.029947952031904767,-0.10365060739587721,-0.034293076777380666,-0.04024277955352363,0.16774975100160344,24.944293171893754,0.0,-0.1549499346267112,0.14980337231972993,0.36123818554589465,0.05891804805138652,-0.9184740532856444,-0.10365060739587721,-0.034293076777380666,-0.04024277955352363
3.21,-86.08046759303802,21.479513520226583,269.38911404573116,283.6224800125082,0,8.324922417642766,189.55666554280648,11.032652721488567,18.979637134857704,-0.00987098249619781,-0.003265934183360742,0.011990476361591262,0.029658348238510306,0.051951154769089194,0.017609535085058685,-0.040018753673186455,0.16273857778377096,11.876025360764709,0.0,0.15236949525070714,0.14471926804992108,0.40996578186533433,0.06606011906771464,-0.8981205107464141,0.051951154769089194,0.017609535085058685,-0.040018753673186455
3.3,-86.08253523747653,21.478838206649375,269.39315236040255,283.6268920647227,0,8.342017580393762,189.82033303863912,11.0326517119099,18.979771745346753,-0.022973827094574552,-0.007503484191199554,0.04487016301545238,0.03405197464869344,-0.14558716220418624,-0.04708388897598688,0.36532985170956855,0.19036237614746263,8876871279718.191,0.0,-3540640836111.2,0.1349544698091055,0.5063585527703572,0.0805959870665803,-0.8478753410635412,-0.14558716220418624,-0.04708388897598688,0.36532985170956855
3.5,-86.08459768443407,21.47817345056543,269.39759994622955,283.63169207627726,0,8.379771614373198,190.40498125354344,11.032650600013442,18.97991999820765,-0.010312234787690491,-0.003323780419730579,0.02223792913497389,0.03318204043016029,0.06330796153442025,0.02089851885734486,-0.11316116940239235,0.19026960447932864,8876871279718.191,0.0,-3540640836111.2,0.13165893048768407,0.5236676344273766,0.08230791494051232,-0.8376535929692059,0.06330796153442025,0.02089851885734486,-0.11316116940239235
3.6,-86.08665477843097,21.47751928663369,269.4019709602113,283.6364185412286,0,8.398568176152292,190.69661818922106,11.032649507259947,18.980065698673712,-0.020570939968962403,-0.006541639317383379,0.04371013981767642,0.040010125532232446,-0.10258705181271903,-0.03217858897652798,0.21472210682702514,0.22553964603343193,8876871279718.191,0.0,-3540640836111.2,0.1302379550047728,0.5215867743879503,0.08093638356534018,-0.8393060310012744,-0.10258705181271903,-0.03217858897652798,0.21472210682702514
3.8,-86.08870659410434,21.476875719279736,269.4066148598472,283.64140340216414,0,8.435907087424438,191.2784529096354,11.032648346285038,18.98022049532824,-0.010259078366843269,-0.0032178367697710585,0.023219498179400975,0.03507438857072484,0.05155930801059574,0.016619012738061625,-0.10245320819137738,0.16897400087947118,8876871279718.191,0.0,-3540640836111.2,0.12756809089235524,0.5322219217550266,0.08150995942823139,-0.8329599838548514,0.05155930801059574,0.016619012738061625,-0.10245320819137738
3.9,-86.09075297620902,21.476242762695474,269.4111340031583,283.6462689267754,0,8.454488170277905,191.56862483514698,11.03264721649921,18.98037113343861,-0.020463821046803315,-0.0063295658426198945,0.04519143311085823,0.03915415611973854,-0.10204742679960037,-0.031117290728488334,0.21971934931457235,0.18621256016705295,8876871279718.191,0.0,-3540640836111.2,0.12627500322205695,0.5286409897429303,0.07988860475482697,-0.83559029335866,-0.10204742679960037,-0.031117290728488334,0.21971934931457235
4.11,-86.09279398961851,21.47562043083882,269.4162250487086,283.65167683150537,0,8.493214749186563,192.17629692654444,11.032645943737823,18.980540834956955,-0.009719111473790065,-0.00296348503168598,0.024243074049189996,0.036376435239265405,0.051165283681015375,0.01602895624254242,-0.09975409076984854,0.15223384657297448,8876871279718.191,0.0,-3540640836111.2,0.12276267536789119,0.547776506581298,0.0816563692256232,-0.823530486223185,0.051165283681015375,0.01602895624254242,-0.09975409076984854
4.2,-86.09482950932608,21.4750087374334,269.41968685562665,283.65553640621346,0,8.509717774675407,192.43600418538512,11.032645078286093,18.98065622852089,-0.022616885639574053,-0.006796593393569131,0.03846452131155179,0.03993333430892334,-0.14330860184204453,-0.04259009290981286,0.1580160806929091,0.15205587135773252,8876871279718.191,0.0,-3540640836111.2,0.12692984849131525,0.4830589300372195,0.0710133591791785,-0.8634234109006759,-0.14330860184204453,-0.04259009290981286,0.1580160806929091
4.4,-86.09685948044567,21.474407715968233,269.4263298836264,283.66241667465914,0,8.546142228968263,193.01151495687571,11.032643417529092,18.980877662787545,-0.010149855597987303,-0.00300510732582637,0.03321513999878786,0.036386456350053456,0.0623351502079337,0.01895743033871379,-0.026246906563819627,0.1161105138862065,8876871279718.191,0.0,-3540640836111.2,0.11579822689572332,0.583964959912019,0.0846326290757275,-0.7990075183241337,0.0623351502079337,0.01895743033871379,-0.026246906563819627
4.5,-86.09888389821295,21.473817309697445,269.4301199930287,283.66658632596483,0,8.564232268152749,193.2984092997603,11.032642470001742,18.981003999767623,-0.02024417767273697,-0.005904062707884371,0.03790109402302746,0.041468503748834075,-0.10094322074749702,-0.02898955382058011,0.04685954024239612,0.13291908750437526,8876871279718.191,0.0,-3540640836111.2,0.1219001288607424,0.5017617643794281,0.07167455178393531,-0.8533687649645666,-0.10094322074749702,-0.02898955382058011,0.04685954024239612
4.7,-86.10090270798624,21.473237601639976,269.43622404478214,283.6729529012885,0,8.600134811205958,193.87041214631236,11.032640943988804,18.981207468159404,-0.010094048866449148,-0.002898540287343818,0.030520258767126024,0.0395434096401534,0.05075064403143906,0.015027612102702752,-0.036904176279507137,0.10638019387992914,8876871279718.191,0.0,-3540640836111.2,0.11344663372023786,0.5751189887750031,0.08093824489920329,-0.8061122816088344,0.05075064403143906,0.015027612102702752,-0.036904176279507137
4.8,-86.10291584524751,21.472668594579297,269.4409515004844,283.6780110602737,0,8.61796786608781,194.1554952277253,11.032639762124878,18.981365050016148,-0.02013137261272398,-0.005690070606796402,0.04727455702266087,0.04290007917274944,-0.10037323746274868,-0.027915303194525946,0.16754298255534902,0.12608721035748974,8876871279718.191,0.0,-3540640836111.2,0.11506127998430936,0.5404199901242096,0.0749067066714543,-0.8301181370251817,-0.10037323746274868,-0.027915303194525946,0.16754298255534902
5.0,-86.10492330560344,21.47211028106311,269.44774102240336,283.68502688626717,0,8.65332848743244,194.72376135582684,11.032638064744399,18.981591367413447,-0.010037301779632904,-0.0027915675809353476,0.033947609594804334,0.04220524335250088,0.05047035416545534,0.014492515129305262,-0.06663473713928261,0.11669477920722744,8876871279718.191,0.0,-3540640836111.2,0.10873739834104093,0.5889369098629424,0.08037211009912527,-0.7967871850885431,0.05047035416545534,0.014492515129305262,-0.06663473713928261
5.1,-86.10692499478631,21.471562693403087,269.45247017349755,283.6900848093815,0,8.67087919550079,195.00691914633666,11.032636882456625,18.981749005783254,-0.020016891828760278,-0.0054758766002294314,0.04729151094181833,0.04608784095532072,-0.0997959004912741,-0.026843090192940934,0.1334390134701404,0.13090999726191005,8876871279718.191,0.0,-3540640836111.2,0.11144772598788673,0.5420186147846584,0.07280059414713924,-0.8297561684560547,-0.0997959004912741,-0.026843090192940934,0.1334390134701404
5.3,-86.10892093865499,21.471025813674597,269.4601775174376,283.6979705292937,0,8.70566845758407,195.57122125711322,11.03263495562064,18.982005917247918,-0.009979719343391471,-0.002684398642447403,0.03853671970034608,0.04430087908616411,0.05018586242684399,0.013957389788910129,-0.04377395620736121,0.10313696427592448,8876871279718.191,0.0,-3540640836111.2,0.10394176507480196,0.6034333817330136,0.07974020323928784,-0.7865785169140782,0.05018586242684399,0.013957389788910129,-0.04377395620736121
5.4,-86.11091102319594,21.47049970371644,269.46491891862695,283.70303819768,0,8.722921172492494,195.85234049737906,11.032633770270342,18.982163963954232,-0.019900845409494997,-0.005261099581588241,0.047414011893351676,0.054939246779681095,-0.09921126066103474,-0.025767009391408243,0.08877292193005552,0.1883326174820299,8876871279718.191,0.0,-3540640836111.2,0.10774989902011513,0.5439544619026601,0.07068722133409999,-0.8291603098179546,-0.09921126066103474,-0.025767009391408243,0.08877292193005552
5.61,-86.11289525452415,21.469984315130567,269.4736617422226,283.7119055104498,0,8.758802992017447,196.44038273173368,11.032631584564443,18.98245539140742,-0.009448720610515965,-0.0024542313612908547,0.04163249331256902,0.051738459666030065,0.04977202285228111,0.01336603914427327,-0.027531040860869802,0.2076668062183864,-884029709840.8561,0.0,1931290912420.2993,0.09930863027726879,0.6161629442973288,0.07871576402661665,-0.7773576078749121,0.04977202285228111,0.01336603914427327,-0.027531040860869802
5.7,-86.11487354888413,21.469479719281868,269.4813794541554,283.7197981781875,0,8.774077892009492,196.69142112358423,11.03262965513646,18.982712648471846,-0.0219810484442936,-0.005606620541106139,0.08575235480887197,0.06263096202308575,-0.13924808704197397,-0.0350265464423921,0.4902206832922558,0.31180406708887326,-884029709840.8561,0.0,1931290912420.2993,0.0986883402757439,0.6052742197675214,0.0759762122122541,-0.7862132952044983,-0.13924808704197397,-0.0350265464423921,0.4902206832922558
5.9,-86.11684590265095,21.468985887297872,269.48821142115156,283.72684856781035,0,8.807604160037084,197.24711973558604,11.032627947144713,18.982940380705053,-0.009861768834085174,-0.0024691599199755366,0.034159834980869136,0.06539738453404183,0.06059639805104208,0.015687303105652996,-0.25796259914001396,0.3139293902480739,-884029709840.8561,0.0,1931290912420.2993,0.09808770438349734,0.5933196640233881,0.07314783337449918,-0.7956129542714636,0.06059639805104208,0.015687303105652996,-0.25796259914001396
6.0,-86.11881222233097,21.468502830068527,269.4974277107527,283.73616261425354,0,8.824259223897597,197.52382540388928,11.032625643072311,18.983247590358424,-0.01966319680022373,-0.004830572293457198,0.09216289601113237,0.06713988884025937,-0.09801427966138589,-0.023614123734816694,0.5800306103026344,0.342283971612647,-884029709840.8561,0.0,1931290912420.2993,0.09363653303626032,0.6221259765976355,0.07529804840584525,-0.7736418246382873,-0.09801427966138589,-0.023614123734816694,0.5800306103026344
6.2,-86.12077248456308,21.468030578245962,269.5103759913361,283.74902036348556,0,8.85717408098797,198.07488797572614,11.032622406002165,18.983679199711204,-0.009801311160515516,-0.002361259112824141,0.06474140291714997,0.0640412040777246,0.04930942819854102,0.012346565903165272,-0.13710746546991187,0.2671944526277835,-884029709840.8561,0.0,1931290912420.2993,0.0895742015190876,0.6458963145687928,0.07670500093623864,-0.7542617291630541,0.04930942819854102,0.012346565903165272,-0.13710746546991187
6.3,-86.12272667611948,21.467569132244247,269.51511563213575,283.7540803737997,0,8.873440672205897,198.34922038768065,11.032621221091965,18.98383718773786,-0.01954191556407643,-0.004614460017151617,0.04739640799641637,0.06716042857387315,-0.0974060440356095,-0.022532009043274837,-0.17344994920733664,0.2684750327347127,-884029709840.8561,0.0,1931290912420.2993,0.09644346647531787,0.5485220498096617,0.06388321957652784,-0.8280948936585518,-0.0974060440356095,-0.022532009043274837,-0.17344994920733664
6.5,-86.12467472390668,21.467118482239158,269.5296202032623,283.76841427323103,0,8.905669013504703,198.89542650167127,11.032617594949183,18.984320673442078,-0.009740238935975745,-0.0022532500254435184,0.07252285563282605,0.06403718803172173,0.04900838314050339,0.011806049958540482,0.1256322381820483,0.18321484870275093,-884029709840.8561,0.0,1931290912420.2993,0.08550320739494509,0.6528134670079478,0.07452496266281344,-0.7489791777869037,0.04900838314050339,0.011806049958540482,0.1256322381820483
6.6,-86.12661660496644,21.466678668167955,269.5343411757234,283.7734544560018,0,8.921577115704102,199.16727592796997,11.03261641470607,18.98447803919078,-0.019418810597642347,-0.004398140712034164,0.0472097246108662,0.061163451842820536,-0.09678571661666636,-0.021448906865906534,-0.25313131021959945,0.2188747019679888,-884029709840.8561,0.0,1931290912420.2993,0.09260327191769924,0.5494755458133027,0.06144683762451917,-0.8280854694590745,-0.09678571661666636,-0.021448906865906534,-0.25313131021959945
6.8,-86.12855222647677,21.46624969972917,269.5499648214441,283.7888491819963,0,8.953085696251378,199.70840710895135,11.032612508794639,18.98499882738147,-0.009678107551636108,-0.002144842193931849,0.0781182286036141,0.0682470470646698,0.04870351523003115,0.011266492590511566,0.15454251996373938,0.21921486858195444,-884029709840.8561,0.0,1931290912420.2993,0.08165506234700813,0.6571757703163225,0.0719481324949814,-0.7458390737503224,0.04870351523003115,0.011266492590511566,0.15454251996373938
6.9,-86.1304816257528,21.465831576382385,269.5546838132865,283.79388533939664,0,8.9686212025768,199.9776648134484,11.032611329046677,18.98515612710955,-0.01929399276022526,-0.00418123346783259,0.04718991842366879,0.08740635640545882,-0.096158852085891,-0.0203639127390073,-0.30928310179945145,0.35636854387744554,-884029709840.8561,0.0,1931290912420.2993,0.08865851062649592,0.5509524886971227,0.0590139851089726,-0.8277127359497958,-0.096158852085891,-0.0203639127390073,-0.30928310179945145
7.1,-86.13240472024775,21.465424297348036,269.57195072507045,283.8108387656778,0,8.999387049293778,200.51350461616315,11.032607012318731,18.985731690835685,-0.00961547247477771,-0.002036395171742818,0.08633455891981642,0.08437680011972712,0.048392601427237926,0.010724191480448897,0.19572320248073885,0.43548034076971937,-884029709840.8561,0.0,1931290912420.2993,0.077706558230561,0.6622928491416121,0.06936200979019061,-0.741969530628928,0.048392601427237926,0.010724191480448897,0.19572320248073885
7.2,-86.1343214175539,21.46502789160719,269.5887375315929,283.8273351041581,0,9.014656719258877,200.78006289936673,11.032602815617102,18.986291251053096,-0.01916697306157279,-0.003964057408474254,0.16786806522475128,0.10549931428884751,-0.09551500586795028,-0.01927662236731426,0.8153350630493442,0.7007921029113925,-884029709840.8561,0.0,1931290912420.2993,0.07603324601754688,0.661448173002496,0.06768320951179777,-0.7430506329193707,-0.09551500586795028,-0.01927662236731426,0.8153350630493442
7.4,-86.13623179540348,21.464642357901358,269.5956872086481,283.83448673649104,0,9.04453269534277,201.31039699503822,11.032601078197837,18.98652290695494,-0.009551889247845216,-0.001927668529155822,0.034748385275804566,0.11584765995870594,0.048075419068637826,0.010181944396592153,-0.665598399744733,0.7134983278798904,-884029709840.8561,0.0,1931290912420.2993,0.07921182191551682,0.6011546900072885,0.06005420933876355,-0.7929262373586595,0.048075419068637826,0.010181944396592153,-0.665598399744733
7.5,-86.13813568166961,21.464267694732307,269.6140205330471,283.8524498298001,0,9.05941772537714,201.57414923718915,11.032596494866738,18.987134017768238,-0.019038862661346977,-0.003746631690511051,0.18333324399009207,0.10982750402581769,-0.09486973413501795,-0.018189631613552353,1.4858485871428804,0.7871864830695048,38432215812127.9,0.0,-16224493551.301159,0.07210876701930591,0.6657060457632276,0.06487952905991716,-0.7398827157477099,-0.09486973413501795,-0.018189631613552353,1.4858485871428804
7.71,-86.14003310436728,21.463903930361866,269.63554188263794,283.8734399719302,0,9.09006102104583,202.1248939586155,11.03259111452934,18.987851396087933,-0.009035346179365165,-0.0017322112878134922,0.1024826170992453,0.09902128207169714,0.04763579277134197,0.009592478108083615,-0.3850029851945085,0.6860308298236127,2392205437494.4116,0.0,-2169826190976.8992,0.06979423697721428,0.6717313346950502,0.06380944995889294,-0.7347340556756018,0.04763579277134197,0.009592478108083615,-0.3850029851945085
7.8,-86.14192404165416,21.463551062811742,269.6402773363248,283.87848503159626,0,9.10296161176407,202.35960620296817,11.03258993066592,18.98800924454416,-0.021010414298751213,-0.003920750556929426,0.052616152076249596,0.10102930295325344,-0.13305631243762298,-0.02431710299017708,-0.554071833588842,0.6839021207813094,-5.154098585222582,0.0,-0.30224372398480454,0.07641353569302874,0.5560416442698723,0.05143745517168737,-0.8260344118776212,-0.13305631243762298,-0.02431710299017708,-0.554071833588842
8.0,-86.14380839183171,21.463209079863343,269.6631922740874,283.900796645071,0,9.13134410453992,202.87829479190856,11.032584201931478,18.988773075802914,-0.009421750887739213,-0.0017099147419941103,0.11457468881303602,0.08962442085963662,0.057943317055059944,0.01105417907467657,0.30979268368393187,0.4750647516030935,-5.154098585222582,0.0,-0.30224372398480454,0.06597576562525198,0.6742950762449658,0.060691812584070935,-0.7330005814371622,0.057943317055059944,0.01105417907467657,0.30979268368393187
8.11,-86.14568618334584,21.462878029057624,269.667894577001,283.9058078780394,0,9.146631566859252,203.16184574156526,11.03258302635575,18.988929819233366,-0.017070831946661993,-0.0030095527792701297,0.04274820830532526,0.07825961511776183,-0.06953710053566199,-0.011814891247963874,-0.6529680046155557,0.5510890381274055,-5.154098585222582,0.0,-0.30224372398480454,0.0722744494449885,0.5565452189368575,0.04868350417046354,-0.8262346758988234,-0.06953710053566199,-0.011814891247963874,-0.6529680046155557
8.3,-86.14755728478814,21.46255789769489,269.6920132272551,283.9292605847761,0,9.172782874492476,203.64867307169013,11.032576996693185,18.989733774241838,-0.009847902327844795,-0.001684901909128114,0.12694026449516405,0.09363866503585139,0.038015419046406054,0.00697184668495793,0.4431160852096748,0.5326672018141974,-5.154098585222582,0.0,-0.30224372398480454,0.062141838051551414,0.6763641526817827,0.057443060679044505,-0.7316899751332202,0.038015419046406054,0.00697184668495793,0.4431160852096748
8.41,-86.14942175489647,21.462248692834653,269.69671540817285,283.9342693117777,0,9.187587574809584,203.92879124602558,11.032575821147956,18.98989051360576,-0.01694972825754874,-0.0028109532748808244,0.04274709925249993,0.11756083158694808,-0.06456205390639984,-0.010236830597751965,-0.7653924112969506,0.6714024685736704,-5.154098585222582,0.0,-0.30224372398480454,0.06800591912600565,0.5580517358372219,0.0459599532156415,-0.8257367242610122,-0.06456205390639984,-0.010236830597751965,-0.7653924112969506
8.6,-86.15127942255612,21.461950411295483,269.72204610423046,283.9588709941157,0,9.212905586832859,204.40959219755445,11.032569488473943,18.990734870141015,-0.009777198208681944,-0.0015699028377350816,0.13331945293478084,0.11556630388021993,0.037750158151930606,0.006531844406030243,0.47669659832779554,0.7391740584791648,-5.154098585222582,0.0,-0.30224372398480454,0.0582746933611804,0.6782598919707975,0.05410681033955545,-0.7305066954739716,0.037750158151930606,0.006531844406030243,0.47669659832779554
8.7,-86.15313034680061,21.461663069654847,269.74542970107586,283.9816221076397,0,9.226112171061768,204.6610771556343,11.03256364257473,18.991514323369195,-0.01850924244493519,-0.0028734164063593075,0.23383596845406002,0.13089865057824085,-0.08732044236253278,-0.013035135686242306,1.0051651551927954,0.9311907283374101,495907554083.2025,0.0,-1153252933239.5515,0.05652802624681109,0.6762791891323389,0.052181029813001066,-0.732617349455226,-0.08732044236253278,-0.013035135686242306,1.0051651551927954
8.9,-86.15497452681258,21.461386674248967,269.7524163855476,283.9887971373857,0,9.251667658909124,205.16074781199663,11.032561895903612,18.991747212851585,-0.009220900059858601,-0.0013819770293998983,0.034933422358562706,0.1523135528507539,0.046441711925382705,0.007457196884797007,-0.9945127304774813,0.8340808459973621,8.639982822049486,0.0,-0.11300105623942329,0.058935983540411255,0.6074637099595799,0.04526883570085992,-0.7908635302253837,0.046441711925382705,0.007457196884797007,-0.9945127304774813
9.02,-86.15681180192476,21.461121241172666,269.77682524569383,284.0125197670804,0,9.266905376620768,205.45840883930293,11.032555793688577,18.992560841523126,-0.015310625934835405,-0.0022119423025065196,0.2034071678854364,0.13555153768936717,-0.050747715624807024,-0.0069163772758885555,1.4039478793906233,0.9519360730494985,3.187735374270048,0.0,0.205796825567694,0.05257039430746579,0.6780186652984267,0.048724108352933955,-0.731541526103959,-0.050747715624807024,-0.0069163772758885555,1.4039478793906233
9.2,-86.15864218162076,21.46086675627926,269.8043293707909,284.03918140237903,0,9.289246533780641,205.90183946278617,11.032548917657302,18.99347764569303,-0.010168776088903557,-0.0014138049633732291,0.15280069498386561,0.11715572585799014,0.0285658324773992,0.0044340963285182874,-0.28114707167539366,0.8465248197501571,593665315849.2529,0.0,-1229168320945.654,0.05041330983412298,0.6813653301457818,0.04713973432911272,-0.7286821189752628,0.0285658324773992,0.0044340963285182874,-0.28114707167539366
9.3,-86.16046568553608,21.46062324518041,269.8089653513622,284.04411977929163,0,9.301329535281177,206.14658222417873,11.03254775866216,18.99363217837874,-0.018235039153182437,-0.0024351109884790043,0.046359805712653974,0.11994284537106543,-0.08066263064278766,-0.010213060251057606,-1.0644088927121014,0.8395687391824482,565284473779.2673,0.0,10714947554.13789,0.05487365945138898,0.560524252613445,0.0372608795319468,-0.8254774803633698,-0.08066263064278766,-0.010213060251057606,-1.0644088927121014
9.5,-86.16228218345894,21.460390703246016,269.83742767919597,284.07168922073754,0,9.325205286370707,206.63257072314389,11.0325406430802,18.994580922639866,-0.009082489614300504,-0.0011627096719735205,0.1423116391688955,0.10751782688774951,0.04576274769440983,0.006362006582527441,0.4797591672812094,0.6539553927765918,565284473779.026,0.0,10714947554.472288,0.04640723858314417,0.6826431365968268,0.04351726692017568,-0.7279773099102275,0.04576274769440983,0.006362006582527441,0.4797591672812094
9.6,-86.16409172533113,21.460169135604076,269.84209334736454,284.0766532192813,0,9.336804070075642,206.87379486130766,11.032539476663159,18.99473644491215,-0.01809541872191296,-0.002215676419403686,0.04665668168570408,0.08595474004570076,-0.09012929107612487,-0.010529667474301693,-0.9565495748319176,0.7785208384862489,564371328442.7385,0.0,-1253123710762.1663,0.050276568053022976,0.5628943910945592,0.03433332823705672,-0.8242835639215802,-0.09012929107612487,-0.010529667474301693,-0.9565495748319176
9.8,-86.16589419124901,21.459958537140576,269.87040915024176,284.1040810638105,0,9.359698832486359,207.35264931030852,11.032532397712439,18.995680305008058,-0.009012329589381758,-0.0010529923175006616,0.14157901438608103,0.10409094491786411,0.04541544566265576,0.005813420509515091,0.4746116635018822,0.6633197399765722,564371328448.0475,0.0,-1253123710762.5046,0.042393164290436845,0.6829641783601503,0.03976320830854558,-0.7281357277069296,0.04541544566265576,0.005813420509515091,0.4746116635018822
9.91,-86.16768961146425,21.459758932499412,269.87505668352196,284.1090252110144,0,9.371899067548618,207.61395197282562,11.032531235829119,18.995835222784066,-0.01632200195677516,-0.0018145876469462471,0.042250302547328054,0.12580424452302408,-0.06645156697630399,-0.006923593904050813,-0.9029882894432135,0.7881706038508554,-29293987405.56179,0.0,-23955389817.08463,0.04566598643643424,0.5638070658571966,0.031244190685088834,-0.8240509758022981,-0.06645156697630399,-0.006923593904050813,-0.9029882894432135
10.11,-86.16947786638482,21.459570316082242,269.90311064423724,284.1362018633874,0,9.393757670112091,208.08523338561238,11.03252422233894,18.996770354807907,-0.008941274602847247,-0.000943082085846928,0.14026980357641655,0.12329124738705385,0.03690363676963969,0.004357527805496611,0.4900975051454442,0.8216511924519473,-13110822998.461794,0.0,-2562658571915.284,0.03830595018484118,0.6831736403938388,0.03592926179060449,-0.7283649630498769,0.03690363676963969,0.004357527805496611,0.4900975051454442
10.21,-86.1712588965758,21.45939269204843,269.92816403077563,284.1605270468746,0,9.404543563826579,208.31900697273568,11.032517958992306,18.997605467692523,-0.017810301909690653,-0.0017762403381382545,0.25053386538388267,0.14461616102575245,-0.0886902730684328,-0.008331582522913146,1.1026406180746455,1.1496662829081736,-13110823003.808687,0.0,-2562658571915.2744,0.036359714860535366,0.6806053448210748,0.033854773177219785,-0.7309638774039149,-0.0886902730684328,-0.008331582522913146,1.1026406180746455
10.4,-86.17303281276021,21.459226064314922,269.93506794289914,284.1676105272485,0,9.42415913391567,208.75970075385504,11.032516233014276,18.997835598096636,-0.009336400970626456,-0.0008769880710851339,0.0363363795973951,0.16146277371427123,0.04459947862665379,0.004732906668700647,-1.1273551883499375,1.0875076281548666,33329563844368.418,0.0,24233634880.075584,0.03700610998349562,0.611747098325103,0.028668257444477686,-0.7896671238754994,0.04459947862665379,0.004732906668700647,-1.1273551883499375
10.5,-86.17479943582006,21.459070436556193,269.959853981761,284.1916791949733,0,9.434444991005645,208.9897959256961,11.03251003650456,18.998661799392032,-0.017666230598507644,-0.0015562775872979327,0.24786038861862014,0.1431310844737652,-0.08329829627881218,-0.006792895162128013,2.1152400902122577,1.1573764979723058,33329563844368.418,0.0,24233634880.075584,0.03214461405229308,0.6807496869013594,0.029926814044352608,-0.7311983132996717,-0.08329829627881218,-0.006792895162128013,2.1152400902122577
10.7,-86.17655878679695,21.45892582220413,269.9857063499236,284.2167595604529,0,9.4542580720486,209.4461108084199,11.03250357341252,18.999523544997455,-0.008796754884414813,-0.0007230717603157214,0.1292618408129447,0.11853007919235817,0.044347378570464314,0.004166029134911071,-0.5929927390283793,1.0188379360884754,33329563844368.418,0.0,24233634880.075584,0.029959041882860835,0.6820224513620411,0.027983102675648106,-0.7301813320074798,0.044347378570464314,0.004166029134911071,-0.5929927390283793
10.8,-86.17831085689316,21.458792204447978,269.99026965137546,284.2216155246525,0,9.46381831028365,209.6723102387163,11.032502432587156,18.99967565504585,-0.017520700962165597,-0.0013361775615194724,0.045633014518670544,0.1206194968278442,-0.0872394607775066,-0.006131058012037423,-0.8362882629427296,0.9604184637479788,33329563844368.418,0.0,24233634880.075584,0.03136804958100098,0.5655659686774103,0.021534553809465878,-0.8238248864483845,-0.0872394607775066,-0.006131058012037423,-0.8362882629427296
11.0,-86.18005553747236,21.45866959623427,270.0158433915489,284.2464285716386,0,9.48257315403836,210.120742811271,11.032496039152113,19.00052811305163,-0.0087234028959671,-0.000613041068540101,0.1278687008672823,0.09391563807706761,0.04398649033099264,0.00361568246489687,0.41117843174306024,0.6042509852846076,33329563844368.418,0.0,24233634880.075584,0.02563236188968454,0.6821375899838997,0.02393924280831923,-0.7303822307591263,0.04398649033099264,0.00361568246489687,0.41117843174306024
11.1,-86.18179285006053,21.458558000266752,270.02031377733726,284.2511934587315,0,9.491600509133468,210.34295602326654,11.032494921555665,19.000677125911242,-0.01737312588176116,-0.0011159596751753082,0.04470385788351921,0.07677719001833277,-0.08649722985794091,-0.005029186066352089,-0.8316484298376339,0.6350835701105175,33329563844368.418,0.0,24233634880.075584,0.026471834644059684,0.5641197971159666,0.018099416969861327,-0.8250700016227528,-0.08649722985794091,-0.005029186066352089,-0.8316484298376339
11.31,-86.18352270634679,21.45845743900633,270.0443962171112,284.27458716881677,0,9.51012075599029,210.80520245661052,11.032488900945722,19.00147987390371,-0.008237410886955471,-0.0004788631448619842,0.11467828463791839,0.09464643553889203,0.04350340473716977,0.0030337930014920065,0.33321155597332813,0.5700262228128926,33329563844368.418,0.0,24233634880.075584,0.021250846128489344,0.6809740863522508,0.019776745414445285,-0.7317319014477589,0.04350340473716977,0.0030337930014920065,0.33321155597332813
11.41,-86.18524511818423,21.458367884671024,270.0484300207368,284.27893447285214,0,9.518585572674432,211.0232032194721,11.032487892494816,19.00161433402456,-0.01722411837434385,-0.0008955433530744048,0.04033803625588931,0.11526889343250786,-0.08986707487388412,-0.004166802082124221,-0.7434024838202934,0.6734117920653858,33329563844368.418,0.0,24233634880.075584,0.021675175544984437,0.5506580106152301,0.014305675371622341,-0.8343268482810158,-0.08986707487388412,-0.004166802082124221,-0.7434024838202934
11.6,-86.18695993759077,21.458289339235893,270.0746404995911,284.304346934115,0,9.534352622539444,211.43359810560466,11.032481339875101,19.00248801665304,-0.009025365297600896,-0.0004133970270010278,0.1379498887068194,0.1119772502513325,0.043151331982857775,0.0025376122424914647,0.5137465918470019,0.6970312593957152,33329563844368.418,0.0,24233634880.075584,0.016701792731003265,0.6834314202029667,0.01564371508077897,-0.7296559587760509,0.043151331982857775,0.0025376122424914647,0.5137465918470019
11.7,-86.18866722675003,21.45822181443302,270.0977052665796,284.32676981253974,0,9.542478248138067,211.64757386401845,11.032475573683355,19.003256842219322,-0.01707289159256226,-0.0006752480287275399,0.23064766988511648,0.13783662964957305,-0.08047526294961392,-0.0026185100172651304,0.9269778117829741,1.103949519042493,33329563844368.418,0.0,24233634880.075584,0.014482179830457173,0.6803533217188926,0.013449031690438646,-0.7326177363673478,-0.08047526294961392,-0.0026185100172651304,0.9269778117829741
11.91,-86.19036699801207,21.458165311751454,270.10410133615255,284.3333567846183,0,9.558521339111604,212.09233335092716,11.032473974665962,19.003470044538417,-0.008094148866854549,-0.0002690603884115619,0.030457474156805893,0.15463599161793723,0.042755917741465116,0.0019342268586475064,-0.9532866463252847,1.0706051983190408,33329563844368.418,0.0,24233634880.075584,0.013170922766627034,0.6094361051554753,0.01012644104277925,-0.7926610976440103,0.042755917741465116,0.0019342268586475064,-0.9532866463252847
12.0,-86.1920590638943,21.45811983243719,270.12602052432106,284.354688578759,0,9.565338377177664,212.28102409047852,11.032468494868919,19.004200684144035,-0.018800732024873146,-0.00050532571403355,0.2435465352056734,0.1313365410422545,-0.11896203508909571,-0.0026251702846887604,2.3676562338763096,1.0750155692636811,-74277793303153.28,0.0,-1459125952149.684,0.009859178513157148,0.6792786984135663,0.009127171771856932,-0.7337574130569748,-0.11896203508909571,-0.0026251702846887604,2.3676562338763096
12.2,-86.19374349708234,21.458085377493138,270.1515384486735,284.3794376749024,0,9.57971409712487,212.696166348446,11.032462115387832,19.00505128162245,-0.008422165940160682,-0.00017227472026704112,0.12758962176207023,0.13744382061952815,0.0518928304235625,0.0016652549688325501,-0.579784567218018,1.3716411601703062,-74277793303153.28,0.0,-1459125952149.684,0.007465155018821278,0.6833820828709848,0.006988531570374042,-0.7299892880706875,0.0518928304235625,0.0016652549688325501,-0.579784567218018
12.4,-86.19542027043067,21.45806194767909,270.1555518283917,284.38375671238583,0,9.593123517182995,213.10549604073105,11.032461112042903,19.00518506094639,-0.0083838667416813,-0.00011714907023119219,0.020066898591153296,0.14003485339634175,0.00019149599239691174,0.0002756282501792432,-0.5376136158545818,1.6208558811175422,-74277793303153.28,0.0,-1459125952149.684,0.005814688354790716,0.5542720434283323,0.0038722756069775035,-0.832306251781603,0.00019149599239691174,0.0002756282501792432,-0.5376136158545818
12.5,-86.19708922696368,21.458049543511727,270.18168018426684,284.409082816647,0,9.599786040553841,213.30795839382168,11.032454579953933,19.00605600614223,-0.01668956533009697,-0.00012404167364366047,0.26128355875130277,0.11672806068399111,-0.083056985884157,-6.892603412468306e-05,2.4121666016015033,1.233348333612933,-74277793303153.28,0.0,-1459125952149.684,0.0027101155315014487,0.6841929293153842,0.002542524697050209,-0.7292915921062059,-0.083056985884157,-6.892603412468306e-05,2.4121666016015033
12.6,-86.19875047987631,21.458048165264575,270.1858053387151,284.41350499208863,0,9.606038736568184,213.50894039868865,11.032453548665321,19.006193511290505,-0.016612529126263157,-1.3782471519618915e-05,0.04125154448274785,0.10006187451784365,0.0007703620383381376,0.0011025920212404195,-2.200320142685557,1.2898762066941207,-74277793303153.28,0.0,-1459125952149.684,0.00034377154781122204,0.5596609326943065,0.00023215939847449985,-0.8287215867460408,0.0007703620383381376,0.0011025920212404195,-2.200320142685557
12.8,-86.20040386253494,21.45805779296804,270.2112993157935,284.43822553981704,0,9.618144713736385,213.90642769994,11.03244717517105,19.00704331052645,-0.00826691329315561,4.813851733231874e-05,0.12746988539191695,0.12163334341860621,0.041728079165537516,0.00030960494425968666,0.4310917045458432,1.2707034143053055,-74277793303153.28,0.0,-1459125952149.684,0.0021243022592443944,-0.683839559128381,0.001990993630556122,0.7296266035825284,0.041728079165537516,0.00030960494425968666,0.4310917045458432
12.9,-86.20204945847816,21.458078466409358,270.2154377412153,284.4426572369009,0,9.623824505824299,214.10291533028746,11.032446140564696,19.00718125804051,-0.01645595943216455,0.0002067344131617695,0.04138425421786011,0.11717782594076513,-0.0818904613900897,0.0015859589582945131,-0.8608563117405715,1.0078568893799127,-74277793303153.28,0.0,-1459125952149.684,0.005197608401895944,-0.5614499134640454,0.0035265776953700752,0.827486883755794,-0.0818904613900897,0.0015859589582945131,-0.8608563117405715
13.1,-86.20368712141766,21.45811016513264,270.2413070423655,284.467731381175,0,9.634782973649124,214.491334887058,11.032439673239407,19.00804356807885,-0.008188314697505946,0.00015849361641784356,0.12934650575118714,0.11479744622183745,0.041338223673293165,-0.0002412039837196306,0.43981125766663676,0.775395222133675,-74277793303153.28,0.0,-1459125952149.684,0.007055321521981309,-0.684368942092337,0.00662272731975244,0.7290716789318352,0.041338223673293165,-0.0002412039837196306,0.43981125766663676
13.2,-86.20531684523888,21.45815287843888,270.265205348316,284.4909316644555,0,9.64008225371969,214.6832495504536,11.03243369866292,19.0088401782772,-0.016297238212246216,0.00042713306239505907,0.23898305950467688,0.13359888589873262,-0.08108923514740299,0.002686394459772165,1.0963655375349013,1.03391889920518,-74277793303153.28,0.0,-1459125952149.684,0.009573925454363535,-0.6825616047312159,0.008943066789449484,0.7307106248403269,-0.08108923514740299,0.002686394459772165,1.0963655375349013
13.4,-86.20693870400194,21.458206625385934,270.2715137898406,284.4974201614934,0,9.649684221289045,215.06244600009956,11.032432121552539,19.009050459661353,-0.008109293815294861,0.0002687347352647848,0.03154220762297638,0.15240835958661086,0.04093972198475655,-0.0007919916356513672,-1.037204259408497,0.9485132745780238,-74277793303153.28,0.0,-1459125952149.684,0.013089403184474697,-0.6126457739055727,0.010148480663746422,0.7901840491810334,0.04093972198475655,-0.0007919916356513672,-1.037204259408497
13.51,-86.2085524619424,21.458271404788587,270.2958521994301,284.5210355061313,0,9.654842275225526,215.26835139763472,11.032426036950142,19.009861739981005,-0.014670526731467065,0.0005889036604791282,0.2212582689956198,0.13527424291670484,-0.059647571965202165,0.0029106265928576826,1.7246914670240399,1.055561857165349,21228083862932.918,0.0,1550738556689.2986,0.01464580529682125,-0.683158663089409,0.013706143790054921,0.7299944404278059,-0.059647571965202165,0.0029106265928576826,1.7246914670240399
13.7,-86.21015824347198,21.458347195218543,270.32213401130696,284.5464956472703,0,9.663037462910298,215.61953260223407,11.032419466497172,19.010737800376898,-0.008451481734614174,0.0003988969997729901,0.13832532566766567,0.1139373439067265,0.032731815772910046,-0.001000035056348098,-0.436489175410286,0.9277384610704491,93794610473.26897,0.0,-1625153636716.2014,0.0171746905967627,-0.6849910402698252,0.01615627142730377,0.72816981511632,0.032731815772910046,-0.001000035056348098,-0.436489175410286
13.8,-86.21175600317945,21.458434005004477,270.32622576143996,284.5508734787576,0,9.666969318359119,215.80207290163648,11.03241844355964,19.010874192047996,-0.01597759707465207,0.0008680978593389331,0.04091750132999947,0.11614753305627909,-0.07526115340037788,0.004692008595659364,-0.9740782433766482,0.9047670285182268,-50361151462.01443,0.0,13155752301.368555,0.022411521545161062,-0.5636180126902873,0.015300017774803797,0.8255897098009232,-0.07526115340037788,0.004692008595659364,-0.9740782433766482
14.0,-86.21334559583131,21.45853184223206,270.35274878755854,284.57655968937263,0,9.674426947852506,216.16237186624852,11.03241181280311,19.011758292918618,-0.007947963259340468,0.0004891861379086055,0.13261513059291066,0.0986966728904167,0.040148169076558146,-0.0018945586071516447,0.4584881463145576,0.6535817009286697,-50361151464.095184,0.0,13155752301.947163,0.022371630919501714,-0.6852642630920076,0.02106859913775427,0.7276458712789772,0.040148169076558146,-0.0018945586071516447,0.4584881463145576
14.1,-86.21492711637268,21.458640684744026,270.35681252916726,284.58090764956404,0,9.677768327319374,216.34011451823014,11.032410796867708,19.01189375097224,-0.015815205413645173,0.0010884251196685607,0.040637416087179336,0.07882754833519104,-0.07867242154304732,0.005992389817599574,-0.9197771450573166,0.7440740177577057,-50361151457.16118,0.0,13155752301.932766,0.028361206463340317,-0.5638366719831432,0.01937910458550612,0.8251716788646961,-0.07867242154304732,0.005992389817599574,-0.9197771450573166
14.3,-86.21650039992795,21.45876052014018,270.38366432756,284.60690307768385,0,9.684045763949957,216.69074666367496,11.03240408391811,19.012788810918664,-0.00786641777636983,0.0005991769807778237,0.13425899196363317,0.0986938968296903,0.0397439381863765,-0.002446240694453672,0.4681078793822667,0.6609426951674215,-50361151451.47026,0.0,13155752301.343529,0.02764833511306211,-0.6855584095026447,0.026071380780073056,0.7270251163679975,0.0397439381863765,-0.002446240694453672,0.4681078793822667
14.41,-86.21806555180162,21.458891375777476,270.3876846258338,284.6112064622395,0,9.687053398557447,216.88081797993723,11.032403078843542,19.012922820861128,-0.014228653396938616,0.0011895967026796224,0.03654816612559214,0.12148138219536689,-0.05783850564153472,0.005367452017289107,-0.8882802348912866,0.775953763117261,-144155761922.87784,0.0,1638309389017.8472,0.034430669539415,-0.5634743973481231,0.023513820834505074,0.8250807431748725,-0.05783850564153472,0.005367452017289107,-0.8882802348912866
14.6,-86.21962238747909,21.459033248770073,270.4148603689029,284.63750649017527,0,9.691885330512319,217.20444565163936,11.032396284907774,19.01382867896343,-0.00819387198671814,0.0007466999610347564,0.14303022667951718,0.11915365994964855,0.03176200742221312,-0.002331035482341406,0.5604318976522384,0.8067355755965785,-144155761922.87784,0.0,1638309389017.8472,0.03302862137763181,-0.6857933643551114,0.031183250356611396,0.7263774338961718,0.03176200742221312,-0.002331035482341406,0.5604318976522384
14.7,-86.22117095262732,21.4591861159894,270.4394904035122,284.66138649088714,0,9.694243603590284,217.37238167213866,11.032390127399122,19.014649680117074,-0.015485651482265494,0.001528672193273911,0.2463003460928812,0.13977444083600393,-0.0729177949554738,0.007819722322391573,1.032701194133644,1.1251901447094332,-144155761922.87784,0.0,1638309389017.8472,0.03585397805560874,-0.6836230870775646,0.033660257606192345,0.7281764580992804,-0.0729177949554738,0.007819722322391573,1.032701194133644
14.9,-86.22271129309571,21.45934999406422,270.44569627825086,284.66776122407714,0,9.697932466868796,217.70326335739577,11.032388575930437,19.014856542608364,-0.007701702341975606,0.0008193903740938381,0.031029373693342965,0.1577200108946764,0.03891974570144923,-0.0035464090959003458,-1.0763548619976855,1.0557872139851843,-144155761922.87784,0.0,1638309389017.8472,0.04174620515080303,-0.6146935416442261,0.03260686315779433,0.7869853217763304,0.03891974570144923,-0.0035464090959003458,-1.0763548619976855
15.0,-86.22424322491676,21.459524859380696,270.46940564356566,284.69076331360606,0,9.699684029643766,217.86619431635535,11.032382648589108,19.015646854785523,-0.015319318210487208,0.0017486531647748001,0.23709365314800918,0.13605955162238703,-0.07617615868511629,0.009292627906809653,2.0606427945466694,1.1386906814375242,-144155761922.87784,0.0,1638309389017.8472,0.041444156416864414,-0.6826741618156846,0.03883648456230268,0.7285122498317985,-0.07617615868511629,0.009292627906809653,2.0606427945466694
15.2,-86.22576677430688,21.459710718082498,270.49515315177433,284.7157001616223,0,9.70237181946891,218.1870002605127,11.032376211712055,19.016505105059146,-0.007617746950572295,0.0009292935090066156,0.128737541043336,0.11304936516543881,0.0385078562995747,-0.004096798278840937,-0.5417805605233678,1.0319959409474186,-144155761922.87784,0.0,1638309389017.8472,0.04414949679445901,-0.6844829462220265,0.041596058534928246,0.7265009884221557,0.0385078562995747,-0.004096798278840937,-0.5417805605233678
15.3,-86.22728199766709,21.459907576070858,270.49829805707833,284.7191617114217,0,9.703318871113735,218.34486098772135,11.03237542548573,19.016609935235945,-0.01515223360215124,0.001968579883602189,0.03144905303997758,0.11336971449352415,-0.07534486651578837,0.010392863745955588,-0.9728848800335704,1.0202320553095547,-144155761922.87784,0.0,1638309389017.8472,0.05471828320005798,-0.5294572311099455,0.03424964913917457,0.8458770072787601,-0.07534486651578837,0.010392863745955588,-0.9728848800335704
15.5,-86.22878873158378,21.460115409004676,270.5246022155759,284.74462411673284,0,9.704813550534473,218.65546287267864,11.032368849446106,19.017486740519196,-0.007533669583423857,0.0010391646690877147,0.13152079248783413,0.091888824202548,0.03809282009363705,-0.004647076072572388,0.5003586972392845,0.7081026598181577,-144155761922.87784,0.0,1638309389017.8472,0.04980210414918087,-0.6847823804918453,0.04700555776605633,0.7255227903583303,0.03809282009363705,-0.004647076072572388,0.5003586972392845
15.6,-86.23028705282944,21.460334232300614,270.5275997852747,284.7479422158432,0,9.705159438312679,218.80819022595023,11.03236810005368,19.017586659509156,-0.014983212456627424,0.002188232959383648,0.029975696987776353,0.07202956078438157,-0.07449542873203593,0.011490682902959374,-1.0154509550005812,0.7882054747928914,-144155761922.87784,0.0,1638309389017.8472,0.061704954008839845,-0.5226051133786414,0.03796074964804604,0.8494912451623164,-0.07449542873203593,0.011490682902959374,-1.0154509550005812
15.8,-86.23177676836342,21.4605640011332,270.55359412610414,284.7731069227365,0,9.705451234258522,219.1084638150948,11.032361601468473,19.018453137536806,-0.00744857766989067,0.0011488441629303675,0.12997170414735068,0.09303380127193303,0.03767317393368357,-0.005196943982266375,0.499980035797869,0.712576645068846,-144155761922.87784,0.0,1638309389017.8472,0.055594303295253555,-0.684326468084549,0.05246395185896747,0.7251579774610372,0.03767317393368357,-0.005196943982266375,0.499980035797869
15.91,-86.2332580453326,21.460804770434912,270.5564922999282,284.7763270711749,0,9.70515674847293,219.2706541433393,11.032360876925017,19.01854974333094,-0.013466154265338308,0.0021888118337446225,0.026347034764223252,0.11302183782256887,-0.05470524177679699,0.009454251552856912,-0.9420424489375269,0.7789309577051878,-144155761922.87784,0.0,1638309389017.8472,0.06875727809147134,-0.5180139147359449,0.04182498441508198,0.8515777659897371,-0.05470524177679699,0.009454251552856912,-0.9420424489375269
16.1,-86.2347306610722,21.46105648489633,270.5830475705572,284.80202132394703,0,9.704293744548353,219.54582189342418,11.032354238107361,19.019434919018572,-0.0077506091557958635,0.00132481295482471,0.13976458225783878,0.1108062775338183,0.030081816366012662,-0.004547362520631088,0.5969344604927093,0.7965992241989774,-144155761922.87784,0.0,1638309389017.8472,0.061439113049235945,-0.6845010146470589,0.05807976137912408,0.724092768678858,0.030081816366012662,-0.004547362520631088,0.5969344604927093
16.21,-86.23619464310643,21.461319158966216,270.60848900375976,284.82665571793785,0,9.703565010561551,219.70223234012272,11.032347877749059,19.02028296679199,-0.013308927583853995,0.0023879460898838796,0.23128575638690105,0.13605504138984165,-0.05053016752780145,0.009664846682356136,0.8320106739005704,1.1663143521833654,-144155761922.87784,0.0,1638309389017.8472,0.06448912870502783,-0.6834607404943968,0.06082906886867677,0.7245842896877401,-0.05053016752780145,0.009664846682356136,0.8320106739005704
16.4,-86.23765010914921,21.461592806851666,270.6125003672751,284.8309281261142,0,9.701337766311099,219.96736217026677,11.03234687490818,19.02041667890917,-0.007660347593604261,0.0014402520286849942,0.021112439554527854,0.155753282758158,0.029729368369735797,-0.004987863479994193,-1.1061753517493458,1.0997447302450294,-144155761922.87784,0.0,1638309389017.8472,0.07613022399214497,-0.5692228373773307,0.05304619585559921,0.81693062833282,0.029729368369735797,-0.004987863479994193,-1.1061753517493458
16.5,-86.23909679710495,21.461877362518212,270.63810133082444,284.85571064708853,0,9.700111070216082,220.1043312027646,11.032340474667294,19.021270044360815,-0.014466879557346395,0.0028455566654627825,0.25600963549322475,0.134433408510319,-0.06806531963742038,0.014053046367777683,2.348971959386936,1.200722424608841,-144155761922.87784,0.0,1638309389017.8472,0.0705009642513924,-0.6832435838258522,0.06655750393554356,0.723725029186016,-0.06806531963742038,0.014053046367777683,2.348971959386936
16.71,-86.24053477506912,21.462172869689958,270.6649750661221,284.8817007638835,0,9.69661737315813,220.3861572640814,11.032333756233468,19.022165835537404,-0.0068475141151089595,0.001407177008313651,0.12797016808414238,0.11351424901992632,0.03628269258208288,-0.0068494269388053594,-0.6097117495670564,1.1274974514688132,-144155761922.87784,0.0,1638309389017.8472,0.07346075038327364,-0.6840241299289752,0.0695573458793706,0.7224100521603034,0.03628269258208288,-0.0068494269388053594,-0.6097117495670564
16.8,-86.24196414132915,21.462479331849753,270.66760024688773,284.8846507297882,0,9.69476240686503,220.5045198979427,11.032333099938278,19.022253341562923,-0.015881847333629517,0.0034051351088335378,0.029168675173549617,0.11499866269188985,-0.10038148020578413,0.022199534450221,-1.0977943656732545,1.1081730134407086,-144155761922.87784,0.0,1638309389017.8472,0.09087390779418189,-0.5038765626509549,0.05340972714343848,0.8573200939787521,-0.10038148020578413,0.022199534450221,-1.0977943656732545
17.01,-86.24338463436494,21.46279670223928,270.69424834885643,284.91042298347924,0,9.690013423783132,220.775021494724,11.032326437912786,19.023141611628546,-0.006764252551403945,0.0015112875691801744,0.1268957236604923,0.0919294301157969,0.043417118010597784,-0.009018321617396931,0.46536689755686794,0.7591281328308318,-144155761922.87784,0.0,1638309389017.8472,0.07964604408847956,-0.6834057187890132,0.07541450620822639,0.7217518849583265,0.043417118010597784,-0.009018321617396931,0.46536689755686794
17.11,-86.24479644284968,21.463125023859256,270.6968666497905,284.9133627320292,0,9.687343775459846,220.90102607307088,11.032325783337551,19.02322888832635,-0.014118084847325763,0.003283216199747655,0.02618300934045748,0.07142903817210786,-0.07353832295921975,0.017719286305675184,-1.0071271432003697,0.8531929711152063,-144155761922.87784,0.0,1638309389017.8472,0.09820818809281037,-0.5044630783602211,0.05788511571537481,0.8558746799277767,-0.07353832295921975,0.017719286305675184,-1.0071271432003697
17.3,-86.24619929565047,21.463464229469555,270.7236344294899,284.9392451530446,0,9.681944023696332,221.13542212361364,11.032319091392628,19.024121147649666,-0.007383435793653148,0.0017852926857835462,0.14088305104953658,0.0931059443295043,0.03544552133511879,-0.007883807968232098,0.6036844300477807,0.7585854050256116,-144155761922.87784,0.0,1638309389017.8472,0.08590483755150752,-0.6829745498080609,0.0813977547193863,0.7207915986790968,0.03544552133511879,-0.007883807968232098,0.6036844300477807
17.41,-86.24759343182905,21.46381437158936,270.7260634698026,284.9420013652177,0,9.67836121181027,221.26811091169353,11.03231848413255,19.02420211566009,-0.012673965259776633,0.003183110180060583,0.02208218466121677,0.1185935059070089,-0.048095722419304654,0.012707431766154945,-1.0800078762574583,0.8905970092796934,-144155761922.87784,0.0,1638309389017.8472,0.10660842562441211,-0.4915948341696567,0.060788917205289415,0.8621333250423627,-0.048095722419304654,0.012707431766154945,-1.0800078762574583
17.6,-86.24897853064245,21.464175382497373,270.75296185463577,284.9680043013385,0,9.671838252821594,221.49206935496062,11.032311759536341,19.02509872848786,-0.007289993754741987,0.0019000574105900129,0.14157044649024053,0.11700486126059213,0.028336692131761106,-0.006752909313002956,0.628885588573805,0.9220309443653152,-144155761922.87784,0.0,1638309389017.8472,0.09225801877630609,-0.6824792728711454,0.08747912669228441,0.7197623930616954,0.028336692131761106,-0.006752909313002956,0.628885588573805
17.7,-86.25035470154369,21.464547284231937,270.778374169965,284.9925935781291,0,9.66823268727574,221.6072705583609,11.032305406457509,19.0259458056655,-0.013761709012385675,0.003719017345638144,0.2541231532922038,0.13307881649592662,-0.06471715257643826,0.0181895993504817,1.1255270680196567,1.1653677682439318,-144155761922.87784,0.0,1638309389017.8472,0.09561611022285926,-0.681045675308754,0.09040272183062983,0.7203205505153292,-0.06471715257643826,0.0181895993504817,1.1255270680196567
17.9,-86.25172209418248,21.464930098591246,270.7825354038452,284.99698992811165,0,9.6599671980035,221.83212031178587,11.032304366149038,19.026084513461505,-0.006836963193990211,0.0019140717965449095,0.02080616940105536,0.15526879628295492,0.03462372909197744,-0.009024727745466206,-1.1665849194557463,1.0384541997235293,12.831016109409811,0.0,-0.37402410805096337,0.11066095365262543,-0.5764172533171494,0.07916478009255606,0.8057482491497588,0.03462372909197744,-0.009024727745466206,-1.1665849194557463
18.01,-86.25308030840581,21.465323737133495,270.80685464642,285.020536995697,0,9.655308430259389,221.95262027996372,11.032298286338394,19.026895154880666,-0.012347402030275833,0.0035785322022650295,0.22108402340718197,0.1335514969444729,-0.05009489851168611,0.015131458233818862,1.8207077636920106,1.1256263141476706,3.6882216138795143,0.0,0.35949148735662106,0.10224870954863545,-0.6794612637281834,0.09647590180587455,0.7201180409205716,-0.05009489851168611,0.015131458233818862,1.8207077636920106
18.2,-86.25442953425868,21.465728251177094,270.83277208993167,285.04560081073106,0,9.64654597866023,222.15543897824057,11.032291806977517,19.02775906966439,-0.0071011886992785106,0.002129021282097,0.1364075974298614,0.10792316502749069,0.027611649110512552,-0.007629004842989721,-0.44566539988063997,0.9964938148294891,3.6882216138795143,0.0,0.35949148735662106,0.10536857057626879,-0.6803723394074273,0.09979750228583335,0.7183532575561188,0.027611649110512552,-0.007629004842989721,-0.44566539988063997
18.3,-86.25576987198473,21.466143651800838,270.8357792287307,285.048894875813,0,9.641546575953903,222.25947103435806,11.032291055192816,19.027859307624357,-0.013403377260487823,0.0041540062374422725,0.030071387990346494,0.11005032329513295,-0.06302188561209224,0.020249849553452437,-1.0633620943951338,0.9569431567941911,3.6882216138795143,0.0,0.35949148735662106,0.12626861723233337,-0.5311330892756306,0.08041819850659211,0.8339585068381482,-0.06302188561209224,0.020249849553452437,-1.0633620943951338
18.5,-86.25710098202693,21.466569859844114,270.8610167592846,285.07330897726047,0,9.631160573543445,222.46189603116898,11.032284745810179,19.02870055864282,-0.006655550211007745,0.0021310402163798943,0.12618765276954536,0.0924511101097499,0.03373913524740051,-0.010114830105311926,0.48058132389599606,0.6966692318564733,3.6882216138795143,0.0,0.35949148735662106,0.11209599254695186,-0.6790458005325184,0.10605977694383838,0.7176925615809935,0.03373913524740051,-0.010114830105311926,0.48058132389599606
18.6,-86.2584231550282,21.46700694590712,270.86396658018765,285.0765447102945,0,9.625582231959704,222.56027997522926,11.032284008354953,19.028798886006257,-0.01322173001270225,0.004370860630054034,0.029498209030407032,0.07600650926025579,-0.06566179801694412,0.022398204136741078,-0.9668944373913695,0.7693010802517852,3.6882216138795143,0.0,0.35949148735662106,0.13426610435650127,-0.5284974301113192,0.08509124550826028,0.8339199958776101,-0.06566179801694412,0.022398204136741078,-0.9668944373913695
18.8,-86.25973601183206,21.46745482035104,270.8906227921698,285.10230302476407,0,9.614058616464888,222.75136889183602,11.032277344301956,19.02968742640566,-0.006564284019319212,0.002239372219605692,0.13328105991064423,0.11206917636041573,0.033287229966915306,-0.010657442052241747,0.5189142544011879,0.7171530494253593,3.6882216138795143,0.0,0.35949148735662106,0.11868163008019667,-0.6792070574034098,0.11266620061285917,0.7154710134550327,0.033287229966915306,-0.010657442052241747,0.5189142544011879
18.9,-86.2610399034833,21.46791358329827,270.89588279810465,285.1077298773479,0,9.607930057710307,222.8440653715732,11.032276029300473,19.029862759936822,-0.013038916512329302,0.004587629472290287,0.05260005934872082,0.17354161606428295,-0.06474632493010228,0.02348257252684645,-0.8068100056192513,1.0612704292567214,3.6882216138795143,0.0,0.35949148735662106,0.13331459932809256,-0.601957773322224,0.10280790600040246,0.7805796507767496,-0.06474632493010228,0.02348257252684645,-0.8068100056192513
19.1,-86.26233450122855,21.468383134632635,270.9385601030191,285.14870713140976,0,9.595425463610212,223.02374177495693,11.032265359974245,19.031285336767304,-0.006472988726287007,0.0023477566718277053,0.2133865245721692,0.2421068043876023,0.03282963893021101,-0.011199364002312749,0.8039323261172304,0.925942963104189,3.6882216138795143,0.0,0.35949148735662106,0.12435534398461444,-0.6851104677584147,0.12040734283353034,0.7075743545254329,0.03282963893021101,-0.011199364002312749,0.8039323261172304
19.2,-86.26361986651703,21.468863463999625,270.981912714101,285.1903245713351,0,9.589110074511659,223.11071371301512,11.032254521821475,19.032730423803365,-0.012853652884814711,0.004803293669901723,0.4335261108190117,0.2980459929263029,-0.0638066415852784,0.024555369980740697,2.201395862468472,0.8982406164172447,3.6882216138795143,0.0,0.35949148735662106,0.12773980991732878,-0.6847374812719047,0.12376060714568209,0.7067534469831929,-0.0638066415852784,0.024555369980740697,2.201395862468472
19.4,-86.26489628100109,21.469354790806605,271.05698944070764,285.26208484508646,0,9.575799922451477,223.27890573501014,11.032235752639822,19.03523298135692,-0.0063820724202656946,0.002456634034899716,0.3753836330332674,0.3485819341559452,0.0323579023227452,-0.011733298175010076,-0.2907123889287227,0.8424541282617868,3.6882216138795143,0.0,0.35949148735662106,0.13035319322829292,-0.6888459347391427,0.128000109907968,0.701509297922766,0.0323579023227452,-0.011733298175010076,-0.2907123889287227
19.5,-86.26616320653683,21.469856794223062,271.0982826943736,285.301742975713,0,9.568902256951475,223.36011834377368,11.032225429326406,19.036609423145787,-0.012669255357451267,0.005020034164573346,0.41293253665969,0.33725712012263054,-0.06287182937185483,0.025634001296735934,0.3754890362642207,0.9832235978467871,3.6882216138795143,0.0,0.35949148735662106,0.13476046500546562,-0.6830134528405465,0.13038647419328486,0.7059260638748148,-0.06287182937185483,0.025634001296735934,0.3754890362642207
19.7,-86.26742110518478,21.470369733180828,271.1596807888186,285.3605039351325,0,9.554338420270977,223.5167587098137,11.032210079802795,19.038656026293953,-0.00628949323974839,0.002564694788826936,0.30699047222498277,0.3212950667246307,0.0318988105885145,-0.012276696878732094,-0.529710322173538,0.740428856170841,3.6882216138795143,0.0,0.35949148735662106,0.1375353741613834,-0.686179812466133,0.13452600179127938,0.7015297860107462,0.0318988105885145,-0.012276696878732094,-0.529710322173538
19.8,-86.26866931921045,21.470893166374342,271.1753096399552,285.37577177783453,0,9.54662900696317,223.59217950532195,11.03220617259001,19.03917698799851,-0.012482140256650887,0.005234331935142148,0.15628851136568533,0.31037853761530865,-0.0619264701690241,0.02669637146315174,-1.507019608592953,0.7497920229850518,3.6882216138795143,0.0,0.35949148735662106,0.145357755245605,-0.6626364262085783,0.13331327947150132,0.7225037433591852,-0.0619264701690241,0.02669637146315174,-1.507019608592953
20.0,-86.26990844108501,21.471427552260884,271.2460833658961,285.44343930961844,0,9.531055687310324,223.73720556134907,11.032188479158526,19.041536112196535,-0.006195609372809962,0.00267192943271156,0.3538686297045514,0.31144465010503525,0.03143265441920474,-0.012812012512152984,0.9879005916943339,0.7715616717859073,3.6882216138795143,0.0,0.35949148735662106,0.14431759230813676,-0.6858716454448393,0.141592122812891,0.6990738081794441,0.03143265441920474,-0.012812012512152984,0.9879005916943339
20.1,-86.27113817348584,21.471972559060855,271.2781414869612,285.4743157202509,0,9.522962541520014,223.80680437628936,11.03218046462826,19.042604716232038,-0.012297324008301127,0.005450067999710407,0.32058121065119394,0.3337991711135648,-0.06101714635491078,0.02778138566998807,-0.33287419053357,0.67873342130223,3.6882216138795143,0.0,0.35949148735662106,0.14946495430128962,-0.6771243275060509,0.1433252194450764,0.7061308334906589,-0.06101714635491078,0.02778138566998807,-0.33287419053357
20.3,-86.27235849929718,21.472528374757996,271.36182832568534,285.5542526177727,0,9.506429765559973,223.94015811381485,11.032159542918578,19.045394277522846,-0.006101629056729529,0.0027790784857018125,0.41843419362067075,0.3951331348001443,0.0309784747578581,-0.013354947570043019,0.48926491484738577,0.4584423385435289,3.6882216138795143,0.0,0.35949148735662106,0.1511540034538057,-0.6854650809271687,0.14875141512859363,0.6965365077055455,0.0309784747578581,-0.013354947570043019,0.48926491484738577
20.4,-86.2735694016107,21.473094807099685,271.40369080682416,285.5944431557719,0,9.497894209975001,224.00390710958922,11.032149077298294,19.046789693560804,-0.012109023135167521,0.005664323416887505,0.4186248113882219,0.4145155573462077,-0.060073940784381205,0.028852449311857542,0.0019061776755114185,0.2750563043492592,3.6882216138795143,0.0,0.35949148735662106,0.15589211522953006,-0.6791481122435062,0.15099332637714213,0.7011822198508108,-0.060073940784381205,0.028852449311857542,0.0019061776755114185
20.51,-86.27477052372605,21.473671983597196,271.4546631573614,285.6432893790037,0,9.488348336249008,224.0717720395872,11.032136334210659,19.048488771912044,-0.010919291957701296,0.0052470590682866265,0.4633850048838252,0.40582171168012665,0.01081573797696539,-0.0037933122600078855,0.4069108499600193,0.38062085709234517,563524472702.2639,0.0,-1146229892503.5684,0.15909298547742076,-0.6803758900348985,0.15498807924703714,0.698395851593074,0.01081573797696539,-0.0037933122600078855,0.4069108499600193
20.7,-86.27596257915157,21.47425989152599,271.54031340651494,285.72509053591415,0,9.471331260063305,224.1834088667562,11.03211492164837,19.051343780217167,-0.006273975923788555,0.0030942522568049324,0.45079078501873876,0.5301570061482785,0.02444903175743577,-0.011330562165693262,-0.06628536771098219,1.808123546222023,563524472702.2639,0.0,-1146229892503.5684,0.16182008456178268,-0.6832687922238756,0.1593283938761024,0.6939542353139763,0.02444903175743577,-0.011330562165693262,-0.06628536771098219
20.9,-86.27714495160471,21.474858367925947,271.5957763857436,285.77820251638775,0,9.452386930748661,224.29326263823438,11.032101055903563,19.053192546191454,-0.005911862265719513,0.0029923819997890286,0.27731489614325355,0.5171475775942699,0.00181056829034522,-0.0005093512850795208,-0.8673794443774291,3.167859450615482,563524472702.2639,0.0,-1146229892503.5684,0.16610140649014263,-0.6795250179147212,0.16218005707647562,0.6959552441620548,0.00181056829034522,-0.0005093512850795208,-0.8673794443774291
21.0,-86.27831770501282,21.475467449601737,271.6997844287526,285.8774504343018,0,9.443416577585273,224.3452378494807,11.032075053892811,19.05665948095842,-0.01172753408113164,0.0060908167579042626,1.0400804300900142,0.489120955830509,-0.058156718154120456,0.0309843475811519,7.6276553394674975,3.1173614741472835,563524472702.2639,0.0,-1146229892503.5684,0.1688052808249708,-0.6825448195130371,0.16667412743778112,0.6912720750647842,-0.058156718154120456,0.0309843475811519,7.6276553394674975
21.1,-86.27948107351348,21.47608718312301,271.7351389714996,285.91144945047597,0,9.433587048984613,224.39524216856668,11.032066215257124,19.057837965716654,-0.01163368500655776,0.006197335212725275,0.3535454274702892,0.43624063016019327,0.0009384907457387874,0.0010651845482101082,-6.865350026197152,3.37808577039637,563524472702.2639,0.0,-1146229892503.5684,0.1744935515226002,-0.6731348587957197,0.16810905734692766,0.6986993682471908,0.0009384907457387874,0.0010651845482101082,-6.865350026197152
21.3,-86.28063489145528,21.476717634824777,271.7998076522006,285.9733078408051,0,9.413353756789146,224.4893293283274,11.03205004808695,19.059993588406687,-0.00576908970899128,0.0031522585088339496,0.32334340350502205,0.4894829736498644,0.029322976487832508,-0.015225383519456681,-0.15101011982633636,3.5622547108829337,563524472702.2639,0.0,-1146229892503.5684,0.1767374028856811,-0.678118528593125,0.17318055441775163,0.6920459863126726,0.029322976487832508,-0.015225383519456681,-0.15101011982633636
21.4,-86.28177908339825,21.477358600807666,271.81840581133497,285.9913776184163,0,9.402844921386642,224.53340798736608,11.032045398547165,19.0606135270445,-0.01144191942970021,0.006409659828889995,0.18598159134342437,0.3373705802255702,-0.0567282972070905,0.03257401320056114,-1.3736181216160062,2.3007068951330654,563524472702.2639,0.0,-1146229892503.5684,0.1847554314000476,-0.6596822995781324,0.1721857682904917,0.707839498325505,-0.0567282972070905,0.03257401320056114,-1.3736181216160062
21.6,-86.28291357411452,21.478010216938237,271.9271190916509,286.0950964193583,0,9.382038112473875,224.61562566862588,11.032018220227087,19.06423730305503,-0.005672453581340084,0.0032580806528592168,0.5435664015797592,0.609558581454389,0.02884732924180022,-0.015757895880153666,1.7879240511816488,3.797977033330047,-1058898285429.094,0.0,1205499353772.2812,0.18334124424417142,-0.6790939219925417,0.1811481015525667,0.6873156469742907,0.02884732924180022,-0.015757895880153666,1.7879240511816488
21.8,-86.28403844858876,21.47867233884929,271.9830243381707,286.14862254530453,0,9.360038138624455,224.68991180060564,11.032004243915457,19.066100811272356,-0.005624372371215733,0.003310609555260425,0.2795262325989266,0.774378375363103,0.00024040605062175275,0.00026264451200604116,-1.3202008449041678,4.798396052406736,806411104307.8337,0.0,2396971477178.9346,0.18804001650817406,-0.6742278164130534,0.1837009000269525,0.6901534489486951,0.00024040605062175275,0.00026264451200604116,-1.3202008449041678
21.9,-86.28515375201889,21.479345181940207,272.1544924981951,286.3119938361029,0,9.350226709833542,224.72407635352403,11.03196137687545,19.071816416606502,-0.01115303430125915,0.006728430909177662,1.7146816002440712,1.0430343756612759,-0.05528661930043535,0.034178213539173094,14.35155367645175,4.905659526250327,1273378225532.4526,0.0,1198957200843.4734,0.19029025242665656,-0.6786291302108898,0.18885021880281003,0.6838038595377635,-0.05528661930043535,0.034178213539173094,14.35155367645175
22.01,-86.28625906981642,21.48002840137725,272.2807118213085,286.4323587765633,0,9.338622115317586,224.75936147849427,11.031929822044672,19.07602372737695,-0.010048343613985352,0.006211085791301578,1.147448391939871,1.2939619544123118,0.010042642611579717,-0.004703137435236997,-5.156665530038044,5.085144457939657,636689112766.2412,0.0,599478600420.8337,0.19424202593390383,-0.6766769592833912,0.19225259564698916,0.6836792139615417,0.010042642611579717,-0.004703137435236997,-5.156665530038044
22.21,-86.28735481760724,21.480722132093867,272.58665375938295,286.72358262353237,0,9.317787581159998,224.81734819391818,11.031853336560154,19.086221791979433,-0.005478738954067827,0.0034686535830808062,1.529709690372277,1.6816359066474973,0.022848023299587704,-0.013712161041103907,1.9113064921620373,5.2630091867749424,0.02609868833022557,0.0,-1.5170534003565128,0.19732823421773243,-0.6776952166809461,0.196493530908307,0.6805740617886222,0.022848023299587704,-0.013712161041103907,1.9113064921620373
22.31,-86.28844080123193,21.481426408791087,272.7664734665825,286.8949210841138,0,9.307399413942523,224.84335436165958,11.031808381633354,19.092215782219416,-0.010859836246908347,0.007042766972205222,1.7981970719955982,1.8411544634721053,-0.05381097292840635,0.035741133891244926,2.684873816233268,2.6870230679982106,0.09320713309745572,0.0,-1.5254714955733266,0.20133697178219048,-0.6756062879228887,0.19989294495336532,0.680486868404162,-0.05381097292840635,0.035741133891244926,2.684873816233268
22.5,-86.28951689674642,21.4821411159378,273.18788619936754,287.29598723142226,0,9.288025255769519,224.88727439718247,11.031703028450158,19.106262873312254,-0.005663660602587994,0.003761616561647697,2.217961751500139,2.109882781077683,0.02734829286484378,-0.017269212687144753,2.2092877868659886,1.6953869333228446,0.13951322337691058,0.0,-1.2335823129083876,0.20463493013173498,-0.6759051559885054,0.20400859536526378,0.6779802788394559,0.02734829286484378,-0.017269212687144753,2.2092877868659886
22.7,-86.29058301042247,21.482866247771128,273.69034931649816,287.7741919760787,0,9.267613398223489,224.92572553980804,11.031577412670876,19.123011643883274,-0.005330568380230735,0.003625659166637276,2.512315585653093,2.4414459844129697,0.0016654611117863031,-0.0006797869750521073,1.471769170764777,2.860619485644759,0.054607280437226534,0.0,-0.6579033563148364,0.20831509935808168,-0.6749399494595577,0.2077812377883959,0.6766741026713556,0.0016654611117863031,-0.0006797869750521073,1.471769170764777
22.81,-86.29163940874824,21.48360195829676,273.9643728790383,288.0351884613349,0,9.256101927167604,224.94346972623535,11.03150890678024,19.132145762634607,-0.009603621143386722,0.0066882775057438195,2.491123295819568,2.6761488841225303,-0.03884593421050918,0.027841984900968723,-0.19265718030477627,2.5393888868777834,116110093947.44104,0.0,629629027222.2317,0.21227224083413992,-0.6730623660787789,0.21127734494952505,0.6762317876666019,-0.03884593421050918,0.027841984900968723,-0.19265718030477627
22.9,-86.29268593842878,21.48434812128931,274.25124855035875,288.30843239852646,0,9.24717363829193,224.9561900051043,11.03143718786241,19.14170828501196,-0.011628107561515832,0.008290699917247317,3.187507459116058,2.5360916424824933,-0.022494293534767926,0.017804693461149997,7.737601814405459,3.551562768976029,232220187894.85614,0.0,1259258054444.8325,0.2159857132194065,-0.671956975845767,0.21502019562216437,0.674974303045621,-0.022494293534767926,0.017804693461149997,7.737601814405459
23.1,-86.29372236638649,21.48510464029268,274.84559879614056,288.87422768197996,0,9.226466544080347,224.97866237724656,11.031288600300964,19.161519959871352,-0.0051821397885731075,0.003782595016836811,2.971751228909014,3.2427749823251277,0.032229838864713166,-0.022540524502052208,-1.0787811510352043,12.313326876222552,123850380824.03299,0.0,2519577768702.4834,0.21948855194982975,-0.671530250692891,0.2190152026363025,0.6729816037467066,0.032229838864713166,-0.022540524502052208,-1.0787811510352043
23.3,-86.29474882976174,21.48587162862041,275.1491332843781,289.16340000487213,0,9.20226010777742,224.99313866120556,11.031212716678905,19.171637776145936,-0.005132316876270711,0.003834941638647407,1.5176724411875906,3.3010741790104765,0.00024911456151198354,0.00026173310905297905,-7.270393938607144,15.536721391763226,123850380824.03299,0.0,2519577768702.4834,0.2234781807692303,-0.6696018716179717,0.22253676267125586,0.6724345510944406,0.00024911456151198354,0.00026173310905297905,-7.270393938607144
23.4,-86.2957654559133,21.48664905935605,275.7537059853818,289.7390922676716,0,9.19446664599207,224.9973774103485,11.031061573503655,19.191790199512727,-0.010166261515536451,0.007774307356420872,6.045727010037596,3.1122890498206277,-0.05033944639265848,0.0393936571777355,45.28054568850102,15.067389825440353,123850380824.03299,0.0,2519577768702.4834,0.22698102636584286,-0.6690581699864426,0.2265010405425693,0.6704759932148462,-0.05033944639265848,0.0393936571777355,45.28054568850102
23.6,-86.29677186241884,21.487436775353547,276.31023387178107,290.2691649406246,0,9.171923870258162,224.99985518102872,11.030922441532054,19.210341129059366,-0.00503203252769417,0.003938579987483536,2.7826394319961483,3.0800091784324435,0.025671144939211042,-0.019178636844686407,-16.315437890207008,15.984995045531843,123850380824.03299,0.0,2519577768702.4834,0.23076967596437967,-0.6677133933673208,0.23024033858633372,0.6692485094946743,0.025671144939211042,-0.019178636844686407,-16.315437890207008
23.7,-86.29776867707544,21.488234829237612,276.53459161852595,290.48309671363563,0,9.159901392705136,224.9980940924433,11.030866352095368,19.21781972061753,-0.009968146566024173,0.007980538840648591,2.2435774674489064,3.3118109044427406,-0.049361140383301076,0.04041958853165141,-5.390619645472533,14.664711529412411,123850380824.03299,0.0,2519577768702.4834,0.2348455569101425,-0.6653015222890354,0.2335127477522179,0.6690988308737852,-0.049361140383301076,0.04041958853165141,-5.390619645472533
23.8,-86.29875535790008,21.4890434534041,276.81562460289035,290.7510003235643,0,9.148306213142776,224.99433309597197,11.030796093849277,19.22718748676301,-0.009866808246385831,0.008086241664884027,2.8103298436439728,2.642361005931325,0.0010133831963833983,0.0010570282423543454,5.667523761950583,5.6539634487195745,123850380824.03299,0.0,2519577768702.4834,0.2385299307368229,-0.6643403016955214,0.237449622870263,0.6673628040912678,0.0010133831963833983,0.0010570282423543454,5.667523761950583
24.0,-86.29973214313013,21.48986224002039,277.3509620044733,291.26107544929147,0,9.124435981147034,224.98081213686774,11.03066225949888,19.245032066815778,-0.004883926150256474,0.004093933081446025,2.676687007914618,2.7626330319019448,0.024914410480646874,-0.01996154291719008,-0.6682141786467756,3.076439141703171,123850380824.03299,0.0,2519577768702.4834,0.2419658507810562,-0.663732040512238,0.24139044815780367,0.6653141791600681,0.024914410480646874,-0.01996154291719008,-0.6682141786467756
24.1,-86.30069877122384,21.49069155102581,277.6208081052008,291.5183931156447,0,9.11231926788499,224.9710527751641,11.0305947979737,19.254026936840027,-0.009666280937068313,0.008293110054218171,2.698461007275303,2.8606992978761054,-0.04782354786811771,0.04199176972772086,0.21773999360684607,3.2984726961995436,123850380824.03299,0.0,2519577768702.4834,0.24605939432258475,-0.6615615779977039,0.24490077684489375,0.6646914039488989,-0.04782354786811771,0.04199176972772086,0.21773999360684607
24.3,-86.30165468086076,21.49153102813201,278.29760828932797,292.16334521316656,0,9.089057586037809,224.94553845617358,11.030425597927668,19.2765869429776,-0.004779548184643562,0.004197385530986268,3.384000920635811,2.9586361754888264,0.02443366376212384,-0.02047862261615959,3.427699566802552,2.731125217672581,123850380824.03299,0.0,2519577768702.4834,0.24954076445477502,-0.661077310378482,0.2490721377748688,0.6623211205769718,0.02443366376212384,-0.02047862261615959,3.427699566802552
24.4,-86.30260112094227,21.492380962823358,278.57099984343995,292.42411554703455,0,9.07657999510314,224.9297846328522,11.03035725003914,19.285699994781332,-0.009464400815062592,0.008499346913488817,2.7339155411198717,3.044773485509673,-0.04684852630419129,0.04301961382502641,-6.500853795159532,2.9477799855007034,123850380824.03299,0.0,2519577768702.4834,0.2535595208944085,-0.6587690520660134,0.25238248136652286,0.661841362037098,-0.04684852630419129,0.04301961382502641,-6.500853795159532
24.6,-86.30353680059201,21.493241406357374,279.2310072564529,293.0532635953682,0,9.052371332556314,224.8922871593628,11.030192248185886,19.307700241881765,-0.004678398248714122,0.00430221767008015,3.3000370650648376,3.094108798728699,0.02393001283174201,-0.02098564621704304,2.8306076197247894,3.0732231986234724,6372626811.901489,0.0,14416791166.8497,0.25711265792678745,-0.6581673360100673,0.25661793958008444,0.6594361773734484,0.02393001283174201,-0.02098564621704304,2.8306076197247894
24.71,-86.30446275915641,21.494111929765122,279.57281681961564,293.3793057532352,0,9.03862899354893,224.8682612775204,11.030106795795096,19.319093893987187,-0.008417805130859962,0.007913849161347136,3.107359665115584,2.7483224033032903,-0.033994608019507815,0.03283301355697277,-1.7516127268114043,3.677750983377229,2604324698.717052,0.0,1288968255292.4978,0.2609739264774304,-0.6561540400266266,0.26000538259426853,0.6585982739710885,-0.033994608019507815,0.03283301355697277,-1.7516127268114043
24.9,-86.30537851620501,21.494992873851647,280.13239722650997,293.9129344811887,0,9.014231019021729,224.82107954624416,11.029966900693372,19.337746574217,-0.00481977394001307,0.0046365478238155735,2.945160036285965,3.4135170081288386,0.018937006267615446,-0.01724895440806106,-0.8536822569980063,11.187211379192854,88511521182.99205,0.0,-1287794691238.477,0.2645571070274646,-0.6551269235144598,0.26395703151119115,0.6566162781438928,0.018937006267615446,-0.01724895440806106,-0.8536822569980063
25.1,-86.306284131531,21.495883819196372,280.4634097730513,294.2287748050612,0,8.985495933958338,224.76364584287256,11.029884147556738,19.348780325768374,-0.004528076629952629,0.00445472672362606,1.65506273270663,3.3144165335040428,0.001458486550302186,-0.0009091055009475538,-6.450486517896582,13.876431490220687,179334323227.5638,0.0,-30200180977.759377,0.26844229592856345,-0.6531238754641685,0.2674140105405767,0.6556353285339888,0.001458486550302186,-0.0009091055009475538,-6.450486517896582
25.2,-86.30717910515175,21.496785326153557,281.0694002574889,294.80679894729695,0,8.975355301623052,224.7319440989134,11.029732649935628,19.368980008582962,-0.008949736207455507,0.00901506957184514,6.059904844376107,3.378094347465686,-0.044216595775029725,0.04560342848219177,44.048421116695714,14.768472514741262,179334323227.5638,0.0,-30200180977.759377,0.272070221360273,-0.6521037935761876,0.2715004899402074,0.6534722037047517,-0.044216595775029725,0.04560342848219177,44.048421116695714
25.4,-86.30806438730903,21.497697044852707,281.6303069804064,295.3419421050693,0,8.94821553070147,224.66257787119167,11.029592423254899,19.38767689934688,-0.004426410786422268,0.0045585934957515116,2.8045336145874087,3.0774507354582323,0.02261662710516628,-0.02228238038046822,-16.27685614894355,16.5814804770746,179334323227.5638,0.0,-30200180977.759377,0.27570750482768175,-0.6505353342168632,0.27508356032018705,0.6520108784051214,0.02261662710516628,-0.02228238038046822,-16.27685614894355
25.5,-86.30893934846964,21.498618685199038,281.9728816447214,295.6689527154609,0,8.935096251230048,224.6249164703611,11.02950677958882,19.39909605482405,-0.008749611606049132,0.009216403463305635,3.4257466431500427,3.9663559339413013,-0.043232008196268025,0.04657809967554057,6.212130285626253,24.60669601506846,179334323227.5638,0.0,-30200180977.759377,0.27957695698027946,-0.6485057414865012,0.27854175961910704,0.6509159058841485,-0.043232008196268025,0.04657809967554057,6.212130285626253
25.7,-86.30980445932578,21.499550496873876,282.2612687556854,295.94431377700766,0,8.904557128310831,224.54364546385537,11.029434682811079,19.408708958522848,-0.00432555428069749,0.004659058374194574,1.4419355548201958,3.326435042860395,0.022120286626758287,-0.022786725445555385,-9.91905544164927,18.882038075141704,179334323227.5638,0.0,-30200180977.759377,0.2832924125565348,-0.6467190356574789,0.28204613723338373,0.6495766886041139,0.022120286626758287,-0.022786725445555385,-9.91905544164927
25.8,-86.31065883079543,21.500492809335142,282.8712275208833,296.5264446521112,0,8.893782090320075,224.50003947021156,11.029282193119778,19.429040917362776,-0.008543714696571548,0.009423124612659572,6.099587651978508,3.398469220434513,-0.04218160415873998,0.0476406623846493,46.57652097158246,16.303283522648943,179334323227.5638,0.0,-30200180977.759377,0.28678921358020376,-0.6457953210353047,0.28619178558777997,0.6471434247251797,-0.04218160415873998,0.0476406623846493,46.57652097158246
26.01,-86.31150302402284,21.501445271817808,283.47189205023255,297.09981704063966,0,8.864007371422817,224.40203165560322,11.029132026987442,19.449063068341083,-0.00401996774956256,0.004535535631739693,2.860307282615578,3.347218096091681,0.02154165212861414,-0.02327423324247552,-15.42514461601389,15.07081731993955,179334323227.5638,0.0,-30200180977.759377,0.2904398708223813,-0.6441598923795082,0.28982511748726425,0.6455262316589406,0.02154165212861414,-0.02327423324247552,-15.42514461601389
26.1,-86.31233738037892,21.502407453334314,283.7567132559826,297.3718975091485,0,8.851380837055933,224.3573630475999,11.029060821686004,19.45855710853275,-0.009270626178666452,0.010690905738957545,3.164680063889596,3.6302896113629544,-0.05834064921226556,0.06839300119130957,3.3819197919335364,13.39924990583747,1280878088.3736064,0.0,1266904300402.758,0.2942799107289275,-0.6418213511752682,0.29296700314505447,0.6446976208930303,-0.05834064921226556,0.06839300119130957,3.3819197919335364
26.2,-86.3131613114616,21.503379832675094,284.07366215271367,297.67465913083834,0,8.837259906350814,224.30585847190287,11.028981584461821,19.469122071757123,-0.008239310826781041,0.009723793407801147,3.169488967310553,3.0417788548086087,0.010313153518854331,-0.00967112331156419,0.04808903420956959,4.68351572340393,1280878088.3736064,0.0,1266904300402.758,0.2978902291693468,-0.6402824661793604,0.2966947629725885,0.6428623433468086,0.010313153518854331,-0.00967112331156419,0.04808903420956959
26.4,-86.31397517909632,21.504362588408984,284.6451221573353,298.22036397522515,0,8.80809645155065,224.19694427119282,11.028838719460666,19.488170738577843,-0.004069338173593466,0.004913778669450881,2.8573000231082903,3.06354377083807,0.020849863265937952,-0.024050073691751415,-1.560944721011318,1.7864783200712306,1280878088.3736064,0.0,1266904300402.758,0.30124077208413463,-0.6391728279580796,0.30056888664023634,0.6406016216168005,0.020849863265937952,-0.024050073691751415,-1.560944721011318
26.5,-86.31477838533641,21.505354948883713,284.9608242890851,298.5220136584604,0,8.793669325470615,224.13953948679304,11.028759793927728,19.498694142969505,-0.008032062400928793,0.009923604747292673,3.157021317497834,2.721900694872898,-0.039627242273352715,0.05009826077841721,2.997212943895395,2.6225045885500413,1280878088.3736064,0.0,1266904300402.758,0.30510840030753905,-0.6368962077216179,0.30387705255849917,0.639476990657174,-0.039627242273352715,0.05009826077841721,2.997212943895395
26.7,-86.31557156246342,21.50635765222641,285.55465056952715,299.0892170833061,0,8.764157845355884,224.018847306362,11.028611337357617,19.518488352317572,-0.003965885635039981,0.0050135167134790675,2.969131402210234,3.2596444845903205,0.020330883829444132,-0.024550440169068113,-0.939449576438004,11.415963595370567,1280878088.3736064,0.0,1266904300402.758,0.30838982469604964,-0.6357891668934903,0.30772658400445846,0.63715947829548,0.020330883829444132,-0.024550440169068113,-0.939449576438004
26.9,-86.31635455298758,21.507369906344046,285.84594702254924,299.36764262829644,0,8.731257634545745,223.89032966901024,11.028538513244362,19.528198234084975,-0.00391495262078935,0.0050612705881825275,1.4564822651104288,3.270195671088892,0.0002546650712531582,0.00023876937351730105,-7.563245685499053,17.000079213792095,1280878088.3736064,0.0,1266904300402.758,0.3121975752958328,-0.6333945938874289,0.3108290249041343,0.6361833695490059,0.0002546650712531582,0.00023876937351730105,-7.563245685499053
27.0,-86.31712737964817,21.508392518923934,286.4317689743622,299.92735071281,0,8.719077450211282,223.82314338951878,11.02839205775641,19.54772563247874,-0.007728266605937396,0.010226125798879902,5.858219518129802,3.2225963972704457,-0.03813313985147992,0.051648552106973014,44.01737253019311,16.4115538974201,1280878088.3736064,0.0,1266904300402.758,0.31541374626496477,-0.6323405422865997,0.3147243672683248,0.6337256345575285,-0.03813313985147992,0.051648552106973014,44.01737253019311
27.1,-86.31788971541391,21.509424597434247,286.7227724534966,300.2055656959988,0,8.703863605886283,223.75400942197925,11.028319306886626,19.557425748449887,-0.007623357657422394,0.010320785103132687,2.910034791343564,3.2108136887669927,0.001049089485150002,0.0009465930425278349,-29.481847267861962,16.245445181457658,1280878088.3736064,0.0,1266904300402.758,0.31923852965441907,-0.6299023212442622,0.3178340397233855,0.6326858225598929,0.001049089485150002,0.0009465930425278349,-29.481847267861962
27.3,-86.3186419734833,21.51046695912446,287.3065811908001,300.7634946872572,0,8.673204767092841,223.60991079962054,11.0281733547023,19.57688603969334,-0.003761290346915316,0.005211808451068852,2.9190436865175786,3.4957725231642334,0.01931033655253546,-0.025544883260319267,0.045044475870073146,14.7624136430519,1280878088.3736064,0.0,1266904300402.758,0.3223772793388805,-0.6288311567988305,0.32166823341253514,0.6302172749285478,0.01931033655253546,-0.025544883260319267,0.045044475870073146
27.4,-86.31938356728499,21.51151873102591,287.5976008194355,301.04179346836,0,8.65774556599126,223.5349525491609,11.02810059979514,19.586586693981186,-0.007415938016919357,0.010517719014480289,2.9101962863541697,2.9034018751103603,-0.036546476700041186,0.0530591056341155,-0.08847400163409092,5.9740197579585494,1280878088.3736064,0.0,1266904300402.758,0.3261989337196297,-0.6263546422650392,0.32475962674303044,0.6291305926363294,-0.036546476700041186,0.0530591056341155,-0.08847400163409092
27.6,-86.3201153404782,21.51258064995226,288.1738574748772,301.5926484027172,0,8.626536653598883,223.37923482686017,11.027956535631281,19.605795249162572,-0.003658865966045203,0.005309594631750438,2.88128327720837,2.892550767855718,0.018785360254370505,-0.026040621913648882,-0.14456504572899725,0.1598671306827541,3948716836.5375,0.0,572324199709.6736,0.3292196855282045,-0.6252835064045968,0.32848373077010484,0.6266844292771568,0.018785360254370505,-0.026040621913648882,-0.14456504572899725
27.8,-86.32083684695306,21.513652052500046,288.75313209490827,302.1464800278399,0,8.595060011551368,223.2158053548394,11.027811716976272,19.625104403163608,-0.003607532374303459,0.005357012738933539,2.8963731001553685,2.8890549469431233,0.00025666795870872046,0.00023709053591550348,0.07544911473499365,0.24034313558915582,8232095389.8375,0.0,1197406744844.6733,0.3325698217970335,-0.6235178810353074,0.33182906829180187,0.6249097815650866,0.00025666795870872046,0.00023709053591550348,0.07544911473499365
27.9,-86.3215472508309,21.51473304504916,289.0387099196172,302.4196903142614,0,8.579174033712953,223.13120773855115,11.027740322520096,19.63462366398724,-0.007104038778465035,0.010809925491131142,2.8557782470892943,2.877189941791026,-0.0349650640416165,0.0545291275219772,-0.4059485306607511,0.2695151847984516,8232095389.8375,0.0,1197406744844.6733,0.3364683654564513,-0.6209229025924009,0.3349477779722511,0.6237417527428667,-0.0349650640416165,0.0545291275219772,-0.4059485306607511
28.0,-86.32224706646471,21.515823773763387,289.3288641913941,302.69729543811513,0,8.56326494222575,223.0446931867965,11.02766778395215,19.64429547304647,-0.006998156338084882,0.01090728714228091,2.9015427177688067,2.5826009509139096,0.0010588244038015084,0.0009736165114976533,0.45764470679511743,1.682459392725984,8232095389.8375,0.0,1197406744844.6733,0.3398689149292139,-0.61909869612058,0.33835433348640637,0.6218699784823241,0.0010588244038015084,0.0009736165114976533,0.45764470679511743
28.2,-86.32293731843939,21.51692411459093,289.89904265492737,303.2426132041466,0,8.531146354983381,222.8659287422218,11.027525239336267,19.663301421830912,-0.003451259873372704,0.0055017041377070286,2.850892317666488,3.108520149154807,0.017734482323560955,-0.027027915022869498,-0.25325200051159324,9.902640566677764,8232095389.8375,0.0,1197406744844.6733,0.34266006868514726,-0.6180443222173557,0.3418803450208059,0.6194538907715683,0.017734482323560955,-0.027027915022869498,-0.25325200051159324
28.4,-86.32361622157217,21.518034123264936,290.1807087571993,303.51216819911815,0,8.495889790185657,222.67954380099016,11.0274548228107,19.672690291906644,-0.003394515663899268,0.0055500433700395235,1.4083305113595708,3.0464831475624186,0.0002837210473671813,0.00024169616166247552,-7.212809031534613,12.800777593772693,8232095389.8375,0.0,1197406744844.6733,0.34657010231088164,-0.6153730747587675,0.34497281000141466,0.6182223737506539,0.0002837210473671813,0.00024169616166247552,-7.212809031534613
28.5,-86.32428551091279,21.519153435304037,290.73330484748254,304.04080446723094,0,8.482289073159915,222.58350394593364,11.027316673788128,19.69111016158275,-0.006692893406210392,0.011193120391013008,5.525960902832516,2.9352255762634494,-0.03298377742311077,0.05643077020973404,41.17630391472886,13.110197006651557,8232095389.8375,0.0,1197406744844.6733,0.3492668283811787,-0.614334679056206,0.34844351655090433,0.6157862457664187,-0.03298377742311077,0.05643077020973404,41.17630391472886
28.7,-86.3249441117441,21.5202820860129,291.2424276773347,304.52794649480836,0,8.448956378632584,222.3857508088605,11.027189393080667,19.708080922577825,-0.003293004156574864,0.005643253544320734,2.5456141492608797,2.808164557304374,0.0169994462481777,-0.027749334233461466,-14.901733767858234,13.31851880087672,8232095389.8375,0.0,1197406744844.6733,0.3525888993605962,-0.6124004169097965,0.35168507845367386,0.6139742690124923,0.0169994462481777,-0.027749334233461466,-14.901733767858234
28.8,-86.32559122958213,21.521420730482728,291.47695240059505,304.7525111170277,0,8.432008223328172,222.28404631583962,11.027130761899851,19.715898413353166,-0.00647117838028057,0.011386444698260173,2.3452472326033225,2.933156757905175,-0.03178174223705661,0.05743191153939357,-2.003669166575544,12.058334520436167,8232095389.8375,0.0,1197406744844.6733,0.35662406994486195,-0.609458495331694,0.35463809263144597,0.6128714697705545,-0.03178174223705661,0.05743191153939357,-2.003669166575544
28.9,-86.3262276801765,21.52256891359187,291.69850797337904,304.964683384856,0,8.414878653080097,222.1804625388317,11.027075373006655,19.723283599112634,-0.00636450594370799,0.011481831091409123,2.215555727839889,2.0214913437541404,0.0010667243657258281,0.0009538639314895232,-1.2969150476343627,4.888732521686031,8232095389.8375,0.0,1197406744844.6733,0.3599450054366347,-0.6074564145520763,0.3578185456254872,0.6110664332846456,0.0010667243657258281,0.0009538639314895232,-1.2969150476343627
29.1,-86.32685402951081,21.52372566000632,292.1051671540734,305.35393426486064,0,8.380107565583263,221.96767563099903,11.02697370821148,19.736838905135777,-0.0031317466715563122,0.005783732072259713,2.0332959034717812,2.234889235022981,0.016163796360758157,-0.028490495095746648,-0.9112991218405256,7.1983173729319505,262002691708.5625,0.0,3643017869948.3486,0.3624712499218499,-0.6065018393972085,0.36130064535843676,0.6084668893633177,0.016163796360758157,-0.028490495095746648,-0.9112991218405256
29.3,-86.32746885380281,21.524892624180335,292.2986925033311,305.53932401631005,0,8.34302152353511,221.74742791358565,11.026925326874167,19.74328975011104,-0.003074121460002754,0.005834820870074274,0.9676267462884914,2.131186154191883,0.00028812605776779124,0.0002554439890728074,-5.328345785916468,8.5832121647794,262002691708.5625,0.0,3643017869948.3486,0.3665776610957001,-0.6033509510369595,0.36408767425553046,0.6074772536676589,0.00028812605776779124,0.0002554439890728074,-5.328345785916468
29.4,-86.32807341950479,21.526068120356918,292.659951284066,305.8851989793516,0,8.3270594822842,221.63451843546756,11.026835012178983,19.755331709468866,-0.006045657019768798,0.011754961765824384,3.612587807348936,2.100741879593137,-0.029715355597661072,0.059201408957502366,26.44961061060501,8.797165163946989,262002691708.5625,0.0,3643017869948.3486,0.36899276676999215,-0.6025011160765662,0.3676450867658572,0.6047097100054237,-0.029715355597661072,0.059201408957502366,26.44961061060501
29.6,-86.3286666133039,21.527252742568468,293.0253025614475,306.2350228682233,0,8.291445561402941,221.40315333108774,11.026743674359638,19.767510085381584,-0.0029659689955252168,0.00592311105775059,1.8267563869076493,1.8598243106260597,0.015398440121217688,-0.02915925354036856,-8.929157102206307,9.849443968317534,262002691708.5625,0.0,3643017869948.3486,0.3722418741095907,-0.6005199243516259,0.3708944918083702,0.6027014879376921,0.015398440121217688,-0.02915925354036856,-8.929157102206307
29.7,-86.32924884212235,21.5284479846373,293.23163560289436,306.43270941043636,0,8.273820013931235,221.28470798768143,11.026692091099276,19.77438785342981,-0.005822288184589421,0.011952420688317289,2.06333041446844,2.3851843924702054,-0.02856319189064265,0.06029309630566827,2.365740275607959,14.31525686368579,262002691708.5625,0.0,3643017869948.3486,0.3760631331796646,-0.5976333770894933,0.3736477735403365,0.6014966398742814,-0.02856319189064265,0.06029309630566827,2.365740275607959
29.9,-86.32982026311778,21.529652800176247,293.39737397806874,306.59155708137996,0,8.235999163953377,221.04231803929207,11.026650656505483,19.779912465935624,-0.002857104977138657,0.006024077694739582,0.8286918758719283,2.054086847863301,0.014825916037253873,-0.02964171496788864,-6.173192692982581,10.662643703382535,262002691708.5625,0.0,3643017869948.3486,0.3794967209708958,-0.5951961274105271,0.3764557464802331,0.6000040663444376,0.014825916037253873,-0.02964171496788864,-6.173192692982581
30.0,-86.33038021368354,21.530865612589224,293.7568164588709,306.93579122988785,0,8.219808180708444,220.91838420715567,11.026560795885281,19.791893881962363,-0.005599505657585189,0.012128124129766433,3.5944248080215346,2.0217632749699552,-0.02742400680446493,0.06104046435026764,27.65732932149567,9.460989722443236,262002691708.5625,0.0,3643017869948.3486,0.38176646179408036,-0.5945380211816286,0.380350296816319,0.5967516750964343,-0.02742400680446493,0.06104046435026764,27.65732932149567
30.2,-86.3309288614489,21.532087915071838,294.1482390194317,307.3106679018736,0,8.184068900255577,220.6650663675043,11.02646294024514,19.804941300647723,-0.00274323882678119,0.00611151241306731,1.9571128028039266,1.9359536785016662,0.014281334154020046,-0.03008305858349572,-8.186560026088069,9.04930753469506,262002691708.5625,0.0,3643017869948.3486,0.3848760952037921,-0.5925956102153026,0.38356096736059336,0.5946274618714145,0.014281334154020046,-0.03008305858349572,-8.186560026088069
30.3,-86.33146719427941,21.53332109061195,294.31474863610697,307.4702870357446,0,8.165869863734368,220.53569361851822,11.026421312840974,19.810491621203564,-0.0053833283051573436,0.012331755401113578,1.6650961667528226,2.0433699558641054,-0.02640089478376116,0.0622024298804618,-2.9201663605109993,8.083221867719761,262002691708.5625,0.0,3643017869948.3486,0.38883352449202263,-0.5892300240734356,0.3857040727539975,0.5940108056445685,-0.02640089478376116,0.0622024298804618,-2.9201663605109993
30.4,-86.3319946502771,21.534563701990297,294.4781755874701,307.6269601830364,0,8.147617728507905,220.40451928982168,11.026380456103132,19.815939186249004,-0.0052745599768401225,0.012426113783483838,1.6342695136313872,1.4442529990581718,0.0010876832831722336,0.0009435838237026172,-0.30826653121436054,4.085945909005852,262002691708.5625,0.0,3643017869948.3486,0.3918871351587861,-0.5872059196539791,0.38866347632536247,0.5920763324023757,0.0010876832831722336,0.0009435838237026172,-0.30826653121436054
30.6,-86.33251025778075,21.53581438178107,294.7513322543057,307.88868360851535,0,8.110517626063595,220.13678929290208,11.026312166936423,19.825044408476856,-0.002578037518290407,0.0062533989538592575,1.3657833341778576,1.1651923574129357,0.013482612292748386,-0.030863574148122463,-1.3424308972676289,2.484432998667436,262002691708.5625,0.0,3643017869948.3486,0.3943101890179489,-0.5861533007155071,0.39236222442622487,0.5890633817682529,0.013482612292748386,-0.030863574148122463,-1.3424308972676289
30.7,-86.33301595536622,21.537075672352543,294.81120331960204,307.9462304936008,0,8.091175055477708,220.00024552374597,11.026297199170099,19.827040110653403,-0.005056975854671571,0.012612905714739766,0.5987106529636449,0.843249983555847,-0.02478938336381217,0.06359506760880644,-7.6707268121422905,2.407012474993434,262002691708.5625,0.0,3643017869948.3486,0.4006578468366459,-0.5790087695979877,0.3916673213253663,0.5922996234193126,-0.02478938336381217,0.06359506760880644,-7.6707268121422905
30.91,-86.33350983184661,21.53834606586767,294.92917786854395,308.0594021115958,0,8.050433925457158,219.70772426727808,11.026267705532863,19.83097259561813,-0.0023517927637666997,0.006049492929180552,0.561783566390007,0.5638917400104316,0.012881824242404099,-0.03125434659790089,-0.1758432693982748,2.7098633673277166,262002691708.5625,0.0,3643017869948.3486,0.4015675114682015,-0.5802159296360261,0.39695481026067436,0.5869581648982743,0.012881824242404099,-0.03125434659790089,-0.1758432693982748
31.11,-86.33399390627255,21.539626394284674,294.9401807885052,308.07016124994936,0,8.010577571516478,219.42189622015724,11.026264954802873,19.83133935961684,-0.0024203721297055922,0.006401642085016613,0.055014599806213677,0.3409119293833907,-0.0003428968296944637,0.0017607457791803092,-2.5338448329189758,2.471051545917608,4.795382787012544,0.0,1.1389433204171628,0.42606887892957623,-0.5446430309901248,0.37634934259628317,0.6165958575346817,-0.0003428968296944637,0.0017607457791803092,-2.5338448329189758
31.21,-86.33446550793244,21.54091603935773,294.9638944690409,308.0930866454139,0,7.990821341109457,219.27635088452203,11.02625902638274,19.832129815634694,-0.004716016598820194,0.012896450730543834,0.23713680535706436,0.2807275082565798,-0.02295644469114569,0.0649480864552713,1.8212220555084808,0.9850145120180042,4.3660855245383505,0.0,1.118192651238498,0.4166877926066244,-0.562533777308095,0.3932570105626221,0.5960502969745548,-0.02295644469114569,0.0649480864552713,1.8212220555084808
31.3,-86.33492778635267,21.5422154826375,294.9864334018795,308.1148855458571,0,7.973049121891111,219.1438674006834,11.02625339164953,19.832881113395985,-0.00513642689144137,0.014438258664108007,0.25043258709539906,0.23219148756842162,-0.004671225473568629,0.017131199261824173,0.14773090820371917,0.9934147472460865,4.3660855245383505,0.0,1.118192651238498,0.41995043236518265,-0.559826466157886,0.39503798619054836,0.595131037345546,-0.004671225473568629,0.017131199261824173,0.14773090820371917
31.5,-86.33537680129784,21.543524375471844,295.04600588091466,308.1721374755015,0,7.933645564074849,218.8444214991993,11.026238498529771,19.834866862697154,-0.002245074725877324,0.006544464171724963,0.2978623951759129,0.3980494137004529,0.01445676082782028,-0.03946897246191536,0.23714904040257,1.0525506173925243,4.3660855245383505,0.0,1.118192651238498,0.4156921104927329,-0.5687112109336919,0.4061484120345108,0.5820748192752169,0.01445676082782028,-0.03946897246191536,0.23714904040257
31.6,-86.33581706277111,21.5448425590064,295.077889702197,308.2028788637293,0,7.913966283155863,218.6921055835275,11.02623052757445,19.8359296567399,-0.004402614732725789,0.013181835345576855,0.3188382128234889,0.37264945075139516,-0.02157540006848434,0.06637371173851797,0.20975817647575704,1.6830585451780842,4.3660855245383505,0.0,1.118192651238498,0.42218556545622493,-0.5611254281350763,0.40418408409192447,0.5861167361434128,-0.02157540006848434,0.06637371173851797,0.20975817647575704
31.8,-86.33624466101415,21.546170154185248,295.2548298639261,308.3725006359282,0,7.87575248962879,218.38232166987942,11.026186292534017,19.841827662130868,-0.0021379912151786662,0.006637975894232563,0.8847008086453942,0.3565944511113537,0.011323117587735654,-0.032719297256721576,2.829312979109537,2.2141922553967532,4.3660855245383505,0.0,1.118192651238498,0.41799837987225474,-0.5692706551610275,0.4147164302209558,0.5737757036521255,0.011323117587735654,-0.032719297256721576,2.829312979109537
32.0,-86.3366610965077,21.54750801175152,295.23276746644075,308.35158688857626,0,7.835579387809247,218.06571433346755,11.02619180813339,19.84109224888136,-0.002082177467741538,0.0066892878313673755,-0.11031198742671261,0.30903117154335946,0.00027906873718564244,0.00025655968567406354,-4.975063980360552,2.6230043286386744,4.3660855245383505,0.0,1.118192651238498,0.43224389722040385,0.551132029293422,-0.4056631520067958,0.5872445033429797,0.00027906873718564244,0.00025655968567406354,-4.975063980360552
32.1,-86.33706911997147,21.548853882248086,295.24977201221134,308.3680763002681,0,7.815789707880017,217.90486942364905,11.026187556996947,19.84165906707371,-0.0040802346377687955,0.013458704965642974,0.17004545770589388,0.25625085013901194,-0.01998057170027229,0.06769417134275502,2.8035744513260252,2.686895595686754,4.3660855245383505,0.0,1.118192651238498,0.43828731587660924,-0.544010633636043,0.40353518220713946,0.5908604031018148,-0.01998057170027229,0.06769417134275502,2.8035744513260252
32.2,-86.33746582236458,21.55020892601815,295.24392750582984,308.3626861967101,0,7.795785208116568,217.74233985920674,11.026189018123542,19.841464250194328,-0.003967023931039592,0.013550437700651037,-0.058445063814928366,0.1362746828483114,0.0011321070672920207,0.0009173273500806241,-2.28490521520819,2.478437672357898,4.3660855245383505,0.0,1.118192651238498,0.4711370687879015,0.49501595458659725,-0.3708726091223973,0.6288422496313439,0.0011321070672920207,0.0009173273500806241,-2.28490521520819
32.41,-86.33785057488558,21.551573913205974,295.25544075400126,308.37391276641284,0,7.754066994823455,217.39557644805382,11.0261861398115,19.841848025133373,-0.0018321548619075032,0.006499938989636526,0.05482499129243642,0.24946949392974557,0.010166043186343583,-0.03357380338578439,0.5393812147969913,2.266759709272812,4.3660855245383505,0.0,1.118192651238498,0.4521574323119164,-0.5281759862020851,0.39987900472894977,0.5972273985522886,0.010166043186343583,-0.03357380338578439,0.5393812147969913
32.6,-86.33822616897274,21.55294715375746,295.20133846553375,308.32231359546455,0,7.715751672871702,217.07552064172225,11.026199665383617,19.84004461551779,-0.001976810985052187,0.007227581849932671,-0.2847488866710687,0.21832922964079118,-0.0007613480165509472,0.0038296992647164586,-1.7872309366499812,3.0504229221700045,4.3660855245383505,0.0,1.118192651238498,0.43461077980619384,0.5546562209048217,-0.4233246320295298,0.5694437659724594,-0.0007613480165509472,0.0038296992647164586,-1.7872309366499812
32.7,-86.33858970630426,21.55433013742089,295.1337027513293,308.25775532799895,0,7.6952274989805325,216.90467764296184,11.026216574312167,19.837790091710975,-0.0036353733152338402,0.013829836634293517,-0.6763571420446982,0.24217434405587493,-0.0165856233018163,0.06602254784360752,-3.91608255373624,2.7687146020943585,4.3660855245383505,0.0,1.118192651238498,0.4363300913073457,0.5540119006848243,-0.427202630888792,0.5658487231416242,-0.0165856233018163,0.06602254784360752,-3.91608255373624
32.8,-86.33894427879835,21.555721303747514,295.13329482437376,308.2575613573705,0,7.675401213701284,216.732194442381,11.026216676293906,19.837776494145793,-0.003545724940892316,0.013911663266235844,-0.004079269555177466,0.2642062035942742,0.0008964837434152935,0.0008182663194233136,6.72277872489559,3.005057061831933,4.3660855245383505,0.0,1.118192651238498,0.6077354756813796,0.10895196873575705,-0.08466604746257397,0.7820605606434804,0.0008964837434152935,0.0008182663194233136,6.72277872489559
33.0,-86.33928758861354,21.557123432092286,295.0974534997271,308.2234404032234,0,7.635483146710776,216.38233817188154,11.026225636625067,19.836581783324235,-0.001716549075965166,0.007010641723859024,-0.17920662323319647,0.23691151304449978,0.00914587932463562,-0.03450510771188361,-0.8756367683900826,2.6857130447143214,4.3660855245383505,0.0,1.118192651238498,0.4452102399083332,0.5449792845860421,-0.4276398946531084,0.5673707272621038,0.00914587932463562,-0.03450510771188361,-0.8756367683900826
33.2,-86.33962104814873,21.558533161614513,295.1305014945133,308.255273153958,0,7.596380165263412,216.02601402597276,11.026217374626372,19.837683383150445,-0.0016672976759224175,0.007048647611131898,0.1652399739307929,0.159050047612117,0.00024625700021373864,0.00019002943636436682,1.7222329858199226,2.042019119540474,4.3660855245383505,0.0,1.118192651238498,0.4481970145333481,-0.5422906936180529,0.4289810561868976,0.5665822916500467,0.00024625700021373864,0.00019002943636436682,1.7222329858199226
33.3,-86.33994359004345,21.559954601278523,295.14526712790916,308.2695998789792,0,7.576863344193286,215.8454462506239,11.026213683218023,19.838175570930304,-0.0032254189471816077,0.014214396640107294,0.14765633395882943,0.2207392968975797,-0.015581212712592787,0.07165749028975804,-0.17583639971964465,0.7638159342073363,4.3660855245383505,0.0,1.118192651238498,0.46238819995927843,-0.5247170038044058,0.4189914108919703,0.5790642590038706,-0.015581212712592787,0.07165749028975804,-0.17583639971964465
33.5,-86.34025547717798,21.561382549854386,295.20268872113536,308.32476443113205,0,7.538222943864554,215.4795394208042,11.026199327819716,19.840089624037844,-0.001559435672646692,0.007139742879313969,0.28710796613097095,0.34104975878306953,0.00832991637267446,-0.03537326880396612,0.6972581608606977,3.041500514528155,4.3660855245383505,0.0,1.118192651238498,0.4490630164852426,-0.5437163978913364,0.4377779943444189,0.557732295601593,0.00832991637267446,-0.03537326880396612,0.6972581608606977
33.61,-86.34055656267344,21.562822405918546,295.23822909744433,308.3589773920267,0,7.517079859648817,215.27559793865814,11.026190442725639,19.841274303248145,-0.002737140867866002,0.013089600583268506,0.32309433008157035,0.4594886231977887,-0.010706410865630147,0.054089615490496075,0.32714876318726893,4.235368991476914,4.3660855245383505,0.0,1.118192651238498,0.4550298726609928,-0.5373226362127766,0.4365859937967589,0.5600222045776124,-0.010706410865630147,0.054089615490496075,0.32714876318726893
33.7,-86.34084690989218,21.56426782785459,295.1679631821102,308.29188439066064,0,7.498826588273335,215.10732521075317,11.026208009204472,19.83893210607034,-0.003226080208188734,0.016060243733819396,-0.7807323926012898,0.5402750528803616,-0.00543265933691904,0.03300714611723086,-12.264741363142427,5.50707864492194,-175546241875077.1,0.0,-436458727219.21454,0.452743342987537,0.5412558173594774,-0.4433436834710222,0.5527313849252089,-0.00543265933691904,0.03300714611723086,-12.264741363142427
33.9,-86.3411266524376,21.565725843853862,295.31947450241734,308.4371292551668,0,7.4614737364549,214.72886979090566,11.026170131374395,19.84398248341391,-0.0013987127270809494,0.007290079996362819,0.7575566015356278,0.7256131797558191,0.009136837405539118,-0.04385081868728381,7.691444970684752,6.690609916395951,-87838801307061.36,0.0,-884668158107.6892,0.4526377210550686,-0.5423983444392713,0.44822420125525625,0.5477391667908178,0.009136837405539118,-0.04385081868728381,7.691444970684752
34.1,-86.34139560415446,21.567188821916243,295.20902328764936,308.3315547572146,0,7.421697941132948,214.3442404412284,11.026197744178088,19.840300776254978,-0.001344758584309583,0.0073148903119068034,-0.5522560738398773,0.7850008288906792,0.00026977071385682756,0.00012405157771991964,-6.549063376877432,8.45833521918099,-87838801307061.36,0.0,-884668158107.6892,0.45558282981030807,0.5396544097451366,-0.44948861102492266,0.5469711069001231,0.00026977071385682756,0.00012405157771991964,-6.549063376877432
34.2,-86.34165496912912,21.56866399985079,295.08764336907757,308.2155186207575,0,7.401227093044527,214.14963186814148,11.02622808915773,19.836254778969252,-0.0025936497466716077,0.014751779345480788,-1.2137991857178858,1.1380577607246114,-0.012488911623620069,0.07436889033573879,-6.615431118779991,12.338211433828764,-87838801307061.36,0.0,-884668158107.6892,0.45744914011430626,0.5382118207922136,-0.45183913152255933,0.5448942277113525,-0.012488911623620069,0.07436889033573879,-6.615431118779991
34.4,-86.34190349168948,21.570148395276494,295.2116960799496,308.334463047456,0,7.364120335968361,213.75587017127594,11.026197075980011,19.840389869331652,-0.0012426128017750935,0.007421977128512383,0.6202635543601919,1.0637949543911749,0.006755184724482715,-0.03664901108484281,9.170313700390585,16.13112902503896,-87838801307061.36,0.0,-884668158107.6892,0.4596202632058043,-0.5364211088947235,0.45407779646182067,0.542968656869952,0.006755184724482715,-0.03664901108484281,9.170313700390585
34.5,-86.3421409164052,21.57163728562296,294.95708165547705,308.0908646031664,0,7.342487791137911,213.5567345479524,11.02626072958613,19.831902721849236,-0.002374247157206321,0.014888903464651337,-2.5461442447254607,1.1979580242309869,-0.011316343554312117,0.07466926336138847,-31.66407799085608,16.515146715145992,-87838801307061.36,0.0,-884668158107.6892,0.46030271517296517,0.5363349465878294,-0.45758509802805736,0.5395202623958432,-0.011316343554312117,0.07466926336138847,-31.66407799085608
34.61,-86.34236692808777,21.57313500813115,294.9995453328247,308.131686503347,0,7.321987578074132,213.33596313235807,11.026250113666794,19.833318177760823,-0.0020546516597361028,0.013615659165369987,0.3860334304332292,0.9999631273644477,0.0029054136133656373,-0.011574948175285055,26.656160683260957,18.084991275631154,-87838801307061.36,0.0,-884668158107.6892,0.46933837721397315,-0.5263667387597541,0.45289556207745235,0.5454769966296686,0.0029054136133656373,-0.011574948175285055,26.656160683260957
34.8,-86.3425859417907,21.574644209854103,294.76715725109733,307.9093769500865,0,7.283701196069506,212.95041498136132,11.026308210687226,19.82557190836991,-0.0011527036996402636,0.00794316696291291,-1.2230951669862193,0.9700548483631991,0.004747094526820263,-0.029855222118195496,-8.469097881155093,16.94505471152493,-1231784774255.316,0.0,200630846460.59396,0.46422117971595733,0.5329422880632243,-0.4611847964144731,0.5364511137589345,0.004747094526820263,-0.029855222118195496,-8.469097881155093
34.9,-86.34279079280957,21.57615863765763,294.78949675132793,307.9309265701473,0,7.265092411759639,212.74536750193124,11.026302625812168,19.8263165583776,-0.002048510188643575,0.015144278035279297,0.2233950023060029,0.48654635040766187,-0.008958064890032987,0.07201111072366284,14.464901692922018,10.954511955307655,-2463569548672.7607,0.0,401261692921.6502,0.48089897634225,-0.5139668418370663,0.44912516148250564,0.5503279471081959,-0.008958064890032987,0.07201111072366284,14.464901692922018
35.1,-86.34298772668214,21.5776854682211,294.69535577646496,307.8409666629065,0,7.226693358820713,212.33091568811068,11.026326161055884,19.823178525882167,-0.0009846693628645512,0.007634152817352804,-0.4707048743148267,0.4313129368697847,0.005319204128895044,-0.03755062608963193,-3.470499383104099,6.098395146612941,-2463569548672.7607,0.0,401261692921.6502,0.4707272704369908,0.5266593061375623,-0.46309244710286435,0.5353421313159673,0.005319204128895044,-0.03755062608963193,-3.470499383104099
35.3,-86.34317452918847,21.579219878038117,294.6696729713604,307.81654063316853,0,7.189266982055608,211.91071624109645,11.02633258175716,19.822322432378677,-0.0009340125316725989,0.007672049085076957,-0.12841402552283218,0.21767735848156478,0.0002532841559597671,0.00018948133862076744,1.7114542439600093,4.930919546910582,-2463569548672.7607,0.0,401261692921.6502,0.4826921258468198,0.513203816529577,-0.4545143819884328,0.5450200279903731,0.0002532841559597671,0.00018948133862076744,1.7114542439600093
35.4,-86.34334725635101,21.580759063417304,294.6805746827561,307.8271330999649,0,7.170903910944101,211.69848445965792,11.02632985632931,19.822685822758537,-0.0017272716253557729,0.015391853791868252,0.10901711395717784,0.18793775710266997,-0.007932590936831628,0.07719804706791185,2.3743113948000665,2.1176283188971565,-2463569548672.7607,0.0,401261692921.6502,0.5033524687923103,-0.4886645414241382,0.43689399860908046,0.5629981279673955,-0.007932590936831628,0.07719804706791185,2.3743113948000665
35.5,-86.34350941443465,21.582306690483023,294.66515865927164,307.8125294847115,0,7.152355252020797,211.48484386190574,11.026333710335182,19.822171955309056,-0.0016215808363994936,0.015476270657188486,-0.15416023484476463,0.10086070550557531,0.001056907889562778,0.0008441686532023302,-2.631773488019387,1.4637993940046354,-2463569548672.7607,0.0,401261692921.6502,0.49642631717428154,0.4983252973564416,-0.4488394820977116,0.5511587148377969,0.001056907889562778,0.0008441686532023302,-2.631773488019387
35.7,-86.34366441994685,21.58386484517611,294.6501965513905,307.7983592141002,0,7.115656751971413,211.05337426006213,11.026337450862153,19.821673218379683,-0.000775027560990782,0.007790773465430223,-0.07481053940580189,0.1713156371944458,0.004232766377043498,-0.03842748595879077,0.39674847719480805,1.9328833930115763,-2463569548672.7607,0.0,401261692921.6502,0.49869591848497713,0.4961356476691703,-0.4492288945819782,0.5507678279193258,0.004232766377043498,-0.03842748595879077,0.39674847719480805
