time,position_x,position_y,position_z,ground_station_distance,comm_range_status,wind_speed,wind_angle,battery_voltage,battery_current,velocity_x,velocity_y,velocity_z,velocity_total,acceleration_x,acceleration_y,acceleration_z,acceleration_total,angular_x,angular_y,angular_z,orientation_w,orientation_x,orientation_y,orientation_z,linear_acceleration_x,linear_acceleration_y,linear_acceleration_z
0.0,-73.36666448291568,37.45804724,269.3324017,281.6482120764713,0,7.693324017,180.0,11.032666899575,18.977746723333333,0.008280978929917637,-2.731491925089813e-05,0.012359152323995204,0.02820299292361169,0.08204148303576636,-0.0013797338063170634,0.2606566705736669,0.2299399611449767,2696870377507573.0,0.0,-25698574116670.137,0.8822215802300445,0.000776519981983416,0.4708315657972381,-0.0014550058563419144,0.08204148303576636,-0.0013797338063170634,0.2606566705736669
0.2,-73.3650082871297,37.45804177701615,269.3348735304648,281.6501436790167,0,7.733346068691314,180.59998222238025,11.032666281617383,18.97782911768216,0.008280978929917637,-2.731491925089813e-05,0.012359152323995204,0.02820299292361169,0.08204148303576636,-0.0013797338063170634,0.2606566705736669,0.2299399611449767,2696870377507573.0,0.0,-25698574116670.137,0.8822215802300445,0.000776519981983416,0.4708315657972381,-0.0014550058563419144,0.08204148303576636,-0.0013797338063170634,0.2606566705736669
0.3,-73.36335977440635,37.45802524818616,269.3387160124029,281.65338655179096,0,7.753378160529021,180.89994000119998,11.032665320996898,18.97795720041343,0.01648512723349427,-0.00016528829988260443,0.03842481938136189,0.02820299292361169,0.08204148303576636,-0.0013797338063170634,0.2606566705736669,0.2299399611449767,2696870377507573.0,0.0,-25698574116670.137,0.834940561299256,0.0027588117240034188,0.5503172978058352,-0.004185664921932167,0.08204148303576636,-0.0013797338063170634,0.2606566705736669
0.5,-73.36171925109892,37.45799769387475,269.3430996973098,281.6571476054999,0,7.793389335514455,181.4997222376539,11.032664225075672,18.97810332324366,0.008202616537147378,-0.000137771557042754,0.0219184245344195,0.02820299292361169,-0.04141255348173446,0.0001375837141992521,-0.08253197423471195,0.2299399611449767,2696870377507573.0,0.0,-25698574116670.137,0.8217184479148439,0.004785124232070856,0.5698318001406795,-0.006900325422495268,-0.04141255348173446,0.0001375837141992521,-0.08253197423471195
0.6,-73.36008650338725,37.45795910468978,269.3474454367244,281.6608729578219,0,7.813402467326133,181.79952003839853,11.03266313864082,18.978248181224146,0.016327477116675485,-0.0003858918497456899,0.043457394145889346,0.035245297792287404,0.08124860579528109,-0.0024812029270293596,0.2153896961146985,0.2299399611449767,2696870377507573.0,0.0,-25698574116670.137,0.8220721735226713,0.006726158530796206,0.5692607069987413,-0.009713278459041649,0.08124860579528109,-0.0024812029270293596,0.2153896961146985
0.81,-73.35846181727679,37.457909531482194,269.35001968225174,281.66290492270184,0,7.855323107926513,182.42881919217493,11.032662495079437,18.97833398940839,0.007736600526002454,-0.00023606289325411593,0.012258312034960212,0.028551386206279516,-0.040908936146062044,0.0007134712213884472,-0.14856705767109105,0.22521882305314073,2696870377507573.0,0.0,-25698574116670.137,0.8756548949660591,0.007362421239314865,0.4826965034166016,-0.013356094671031769,-0.040908936146062044,0.0007134712213884472,-0.14856705767109105
0.9,-73.35684498859789,37.45784889534607,269.35422728558433,281.6664994406718,0,7.873299371251866,182.698380291575,11.032661443178604,18.978474242852812,0.017964763098948178,-0.0006737348458487862,0.04675114813987119,0.027830309344076043,0.1136462508105081,-0.004863021695496338,0.383253734499011,0.2386408739391006,2696870377507573.0,0.0,-25698574116670.137,0.8241466334895832,0.010610899639433439,0.5660663174894732,-0.01544860901619981,0.1136462508105081,-0.004863021695496338,0.383253734499011
1.1,-73.35523628300494,37.45777726761854,269.3537903985242,281.66565315994444,0,7.913094505659592,183.29704301743396,11.032661552400368,18.97845967995081,0.008043527964716187,-0.00035813863764388987,-0.0021844353005917574,0.023347567473111498,-0.049606175671159936,0.0015779810410244813,-0.24467791720231466,0.20624972513135648,2786351511930191.5,0.0,-12740749137605.312,0.9909939936484191,-0.0029382124664604986,-0.13204552174874537,-0.022051114401787177,-0.049606175671159936,0.0015779810410244813,-0.24467791720231466
1.2,-73.35363561597569,37.45769461987982,269.35495257300516,281.6663366821164,0,7.93297394030789,183.59616122861277,11.032661261856749,18.97849841910017,0.016006670292512147,-0.0008264773872213038,0.01162174480953128,0.02412454779091067,0.0796314232779597,-0.0046833874957741455,0.13806180110123056,0.20651864109486123,2786351511930191.5,0.0,-12740749137605.312,0.9508869449782895,0.007958158403452533,0.308462068781968,-0.02453238079415568,0.0796314232779597,-0.0046833874957741455,0.13806180110123056
1.4,-73.35204293281036,37.45760092395309,269.359482061114,281.6702409656132,0,7.972681049899613,184.19390487759242,11.032660129484722,18.978649402037135,0.00796341582663729,-0.0004684796336462683,0.022647440544290024,0.016560567786974303,-0.040216272329374296,0.0017899887678751777,0.05512847867379373,0.13454051160682584,2786351511930191.5,0.0,-12740749137605.312,0.8158053422066138,0.016974547715206092,0.5775800123900223,-0.023975772032525103,-0.040216272329374296,0.0017899887678751777,0.05512847867379373
1.5,-73.35045850863092,37.45749624190454,269.3604082151129,281.67070011265093,0,7.992480347098327,184.49250374910727,11.032659897946221,18.978680273837096,0.01584424179441156,-0.0010468204854419119,0.009261539988756331,0.023052058816998306,0.07880825967774263,-0.005783408517956431,-0.1338590055553368,0.14325842358978855,2786351511930191.5,0.0,-12740749137605.312,0.9648257004363693,0.00860651841738491,0.26081340885221277,-0.03183804926639015,0.07880825967774263,-0.005783408517956431,-0.1338590055553368
1.7,-73.34888221838031,37.457380536043274,269.3622850874611,281.67206909249353,0,8.031987549008603,185.08908923171782,11.032659428728135,18.978742836248703,0.007881451253055618,-0.0005785293063453879,0.00938436174095614,0.021497501617396712,-0.03981395270677972,0.0023414558954826204,0.0006141087609990403,0.140961162287102,2786351511930191.5,0.0,-12740749137605.312,0.9060716415507257,0.015450408746984959,0.42153596073831046,-0.03320992399199138,-0.03981395270677972,0.0023414558954826204,0.0006141087609990403
1.8,-73.34731399682163,37.457253798921265,269.3660495308367,281.6752438049079,0,8.051719642160014,185.38704932800138,11.03265848761729,18.978868317694555,0.015682215586849665,-0.0012673712200950138,0.03764443375587231,0.02490828731291572,0.07800764333794041,-0.006888419137496253,0.28260072014916143,0.18708732120489052,2786351511930191.5,0.0,-12740749137605.312,0.8316758937611167,0.022341334179769277,0.5537963191340052,-0.03355159366322786,0.07800764333794041,-0.006888419137496253,0.28260072014916143
2.0,-73.3457540885374,37.4571160733333,269.3678748981585,281.6765649011244,0,8.091017410571707,185.98223801800413,11.03265803127546,18.97892916327195,0.007799541421107394,-0.0006886279398088392,0.009126836609141266,0.023588594937373517,-0.03941337082871137,0.002893716401430874,-0.14258798573365525,0.18615488873333608,2786351511930191.5,0.0,-12740749137605.312,0.9077229905884755,0.018384122411248816,0.4172546885374836,-0.03999401572448544,-0.03941337082871137,0.002893716401430874,-0.14258798573365525
2.1,-73.34420234792888,37.456967332316964,269.3716740426079,281.6797742052226,0,8.110636540118279,186.27944015899064,11.032657081489347,18.979055801420262,0.015517406085194793,-0.0014874101633921542,0.03799144449374122,0.02938034265303277,0.07717864664087393,-0.007987822235833143,0.2886460788459993,0.2388670727719914,2786351511930191.5,0.0,-12740749137605.312,0.8295953629955357,0.026601794589181105,0.5563184612689507,-0.039669230800297516,0.07717864664087393,-0.007987822235833143,0.2886460788459993
2.3,-73.34265899921513,37.45680758915249,269.37344801765045,281.68104757112036,0,8.149689527246881,186.87299398884537,11.032656637995586,18.979114933921682,0.007716743568764183,-0.0007987158223699009,0.008869875212838009,0.02331912946793451,-0.0390033125821531,0.003443471705111271,-0.14560784640451624,0.21046770078238355,2786351511930191.5,0.0,-12740749137605.312,0.9093805495789556,0.021304254745669313,0.41275908520595656,-0.046937004134796574,-0.0390033125821531,0.003443471705111271,-0.14560784640451624
2.4,-73.34112388643241,37.456636837362744,269.3772704770579,281.68428061530363,0,8.169177957624848,187.16931929764107,11.032655682380735,18.979242349235264,0.015351127827187824,-0.0017075178974579315,0.038224594074449635,0.024776327811911737,0.07634384258423635,-0.009088020750880298,0.293547188616116,0.20269983694947977,2786351511930191.5,0.0,-12740749137605.312,0.8277791811918146,0.03095551871487262,0.5583161865782674,-0.04589573892207585,0.07634384258423635,-0.009088020750880298,0.293547188616116
2.61,-73.33959719343338,37.45645509071313,269.37884927492956,281.6853687736423,0,8.209882119087215,187.79054958741378,11.032655287681267,18.97929497583099,0.007269966662076536,-0.0008654602362683018,0.007518085103204917,0.021679168452684472,-0.03848171983386329,0.004009798386617285,-0.14622147129164154,0.16084423262035136,2786351511930191.5,0.0,-12740749137605.312,0.9197056257775357,0.02302068331120327,0.38811827461780485,-0.0545510307944294,-0.03848171983386329,0.004009798386617285,-0.14622147129164154
2.7,-73.33807889388632,37.45626236321152,269.37967286571427,281.6857354558567,0,8.227259602034804,188.0563308041621,11.03265508178357,18.97932242885714,0.016869994967313024,-0.0021414166845090603,0.009151008718946358,0.02440555480520114,0.10666698116929396,-0.014177293869341714,0.018143595730460396,0.1477979986650252,-4.113828365724302,0.0,0.3201049622039431,0.967757648226798,0.015415152661305,0.243854374332691,-0.06117639647590966,0.10666698116929396,-0.014177293869341714,0.018143595730460396
2.9,-73.33656897127446,37.45605863910815,269.38455660423193,281.68998564754384,0,8.26575001625199,188.64590342175129,11.032653860848942,18.979485220141065,0.0075496130592967,-0.0010186205168594155,0.024418692588312783,0.018956278532268882,-0.046601909540081685,0.005613980838248231,0.07633841934683222,0.09814379014068199,1.7269514545294868,0.0,-0.3104075954746467,0.8037385462640964,0.03970335018069925,0.5911974866872718,-0.05397707817545191,-0.046601909540081685,0.005613980838248231,0.07633841934683222
3.0,-73.33506755889515,37.45584394289553,269.3865960456952,281.691516571637,0,8.28490637377963,188.94011988577776,11.032653350988577,18.979553201523174,0.015014123793122267,-0.0021469621262326637,0.020394414632960416,0.02643307971559994,0.0746451073382556,-0.011283416093732472,-0.04024277955352363,0.14395565411835656,19.84931628920274,0.0,-0.3254268009305708,0.8912654596559495,0.03186166630157637,0.44789618115367147,-0.06340130560732771,0.0746451073382556,-0.011283416093732472,-0.04024277955352363
3.21,-73.33357462985924,37.45561827930833,269.38911404573116,281.6935059156003,0,8.324922417642766,189.55666554280648,11.032652721488567,18.979637134857704,0.007109185885261534,-0.0010745885104497467,0.011990476361591262,0.027263434088731782,-0.03764256146600349,0.005106541027537701,-0.040018753673186455,0.1465692151153353,8.046872832860421,0.0,0.316905544497671,0.8676875311449257,0.036931199505119354,0.4914289847468062,-0.06520726761228336,-0.03764256146600349,0.005106541027537701,-0.040018753673186455
3.3,-73.33209016709021,37.45538162332334,269.39315236040255,281.69694992934893,0,8.342017580393762,189.82033303863912,11.0326517119099,18.979771745346753,0.016494030766978113,-0.0026295109443531693,0.04487016301545238,0.03138349350162416,0.10427605424129548,-0.017276915932260276,0.36532985170956855,0.17408077597945368,6935264806127.918,0.0,-7425040096962.112,0.8186701058460161,0.04505586916194012,0.5688093009864206,-0.06484755631074036,0.10427605424129548,-0.017276915932260276,0.36532985170956855
3.5,-73.33061431332361,37.45513399015926,269.39759994622955,281.7007861447656,0,8.379771614373198,190.40498125354344,11.032650600013442,18.97991999820765,0.007379268833034296,-0.0012381658203963742,0.02223792913497389,0.031175370055903606,-0.045573809669719044,0.006956725619783969,-0.11316116940239235,0.17878522176233183,6935264806127.918,0.0,-7425040096962.112,0.8092625612052489,0.0484504666648764,0.5815504858306368,-0.06742174531726927,-0.045573809669719044,0.006956725619783969,-0.11316116940239235
3.6,-73.32914699110613,37.45487540527667,269.4019709602113,281.7045499229904,0,8.398568176152292,190.69661818922106,11.032649507259947,18.980065698673712,0.014673222174792486,-0.002585848825944479,0.04371013981767642,0.03788789834920718,0.07293953341758183,-0.013476830055481037,0.21472210682702514,0.21408902715797073,6935264806127.918,0.0,-7425040096962.112,0.8101240506280191,0.05069390694298921,0.5797509281232841,-0.07083792581023879,0.07293953341758183,-0.013476830055481037,0.21472210682702514
3.8,-73.3276883527951,37.45460586437786,269.4066148598472,281.7085754993315,0,8.435907087424438,191.2784529096354,11.032648346285038,18.98022049532824,0.007293191555177723,-0.0013477044940302125,0.023219498179400975,0.03335911514083191,-0.03690015309807386,0.006190721659571341,-0.10245320819137738,0.15930458397215994,6935264806127.918,0.0,-7425040096962.112,0.8041808247954706,0.05381163880242917,0.5873406246040243,-0.07367834994371159,-0.03690015309807386,0.006190721659571341,-0.10245320819137738
3.9,-73.32623832055764,37.45432537340674,269.4111340031583,281.7124825780497,0,8.454488170277905,191.56862483514698,11.03264721649921,18.98037113343861,0.014500322374573204,-0.002804909711215939,0.04519143311085823,0.03701918520007256,0.07207130819395474,-0.014572052171857253,0.21971934931457235,0.17258640097944997,6935264806127.918,0.0,-7425040096962.112,0.8058278312413714,0.05600492712193347,0.5844155725430963,-0.07722300890291675,0.07207130819395474,-0.014572052171857253,0.21971934931457235
4.11,-73.32479703636999,37.45403393854867,269.4162250487086,281.716937435773,0,8.493214749186563,192.17629692654444,11.032645943737823,18.980540834956955,0.006863258036424828,-0.0013877850384298107,0.024243074049189996,0.03458437033134896,-0.036366973038801716,0.006748212727552979,-0.09975409076984854,0.13755292902931446,6935264806127.918,0.0,-7425040096962.112,0.7952414115700509,0.05985934924365978,0.5980572894688447,-0.07959544048107865,-0.036366973038801716,0.006748212727552979,-0.09975409076984854
4.2,-73.32336445201678,37.453731566230346,269.41968685562665,281.7198350279626,0,8.509717774675407,192.43600418538512,11.032645078286093,18.98065622852089,0.015917603924562096,-0.0033596924258145313,0.03846452131155179,0.03782658785905118,0.10060384320152535,-0.021910082082052487,0.1580160806929091,0.13296743533178879,6935264806127.918,0.0,-7425040096962.112,0.8290229809257524,0.05735823561638931,0.5494927921727653,-0.08653670466416272,0.10060384320152535,-0.021910082082052487,0.1580160806929091
4.4,-73.32194058909039,37.45341828311968,269.4263298836264,281.725775795189,0,8.546142228968263,193.01151495687571,11.032643417529092,18.980877662787545,0.00711931463193593,-0.0015664155533201538,0.03321513999878786,0.0345907754053492,-0.043991446463130794,0.00896638436247188,-0.026246906563819627,0.0970020574759223,6935264806127.918,0.0,-7425040096962.112,0.7746549245633706,0.06773606610080532,0.6230807226784406,-0.08421393130247525,-0.043991446463130794,0.00896638436247188,-0.026246906563819627
4.5,-73.3205255189902,37.4530940261256,269.4301199930287,281.7289890550288,0,8.564232268152749,193.2984092997603,11.032642470001742,18.981003999767623,0.01415070100193821,-0.0032425699408378367,0.03790109402302746,0.03942757023210343,0.07031386370002306,-0.01676154387517689,0.04685954024239612,0.11217101202972642,6935264806127.918,0.0,-7425040096962.112,0.8187012691558012,0.0636920690626484,0.5631133398626352,-0.09260085685320346,0.07031386370002306,-0.01676154387517689,0.04685954024239612
4.7,-73.31911926292189,37.45275887239794,269.43622404478214,281.73441611587776,0,8.600134811205958,193.87041214631236,11.032640943988804,18.981207468159404,0.007031280341536211,-0.0016757686382717892,0.030520258767126024,0.0380141417949242,-0.035597103302009964,0.00783400651283023,-0.036904176279507137,0.0896119642550767,6935264806127.918,0.0,-7425040096962.112,0.7790045527990437,0.0723989863946487,0.6160594273955762,-0.09154821355124408,-0.035597103302009964,0.00783400651283023,-0.036904176279507137
4.8,-73.31772183189678,37.45241281932727,269.4409515004844,281.73852755009403,0,8.61796786608781,194.1554952277253,11.032639762124878,18.981365050016148,0.01397431025111478,-0.003460530706718158,0.04727455702266087,0.041093021248468566,0.06943029909578594,-0.01784762068446375,0.16754298255534902,0.10945140562429131,6935264806127.918,0.0,-7425040096962.112,0.7976178455373677,0.07207353207225073,0.5908856722913844,-0.09728977713879695,0.06943029909578594,-0.01784762068446375,0.16754298255534902
5.0,-73.31633329673117,37.45205585454474,269.44774102240336,281.74461194117885,0,8.65332848743244,194.72376135582684,11.032638064744399,18.981591367413447,0.006942675828014438,-0.0017848239126649886,0.033947609594804334,0.040813191012335846,-0.03515817211550168,0.008378533970265839,-0.06663473713928261,0.1035380313997631,6935264806127.918,0.0,-7425040096962.112,0.7705861574454255,0.0790346552321813,0.624860598410647,-0.09746655723740517,-0.03515817211550168,0.008378533970265839,-0.06663473713928261
5.1,-73.31495363804561,37.45168800592187,269.45247017349755,281.74872678335436,0,8.67087919550079,195.00691914633666,11.032636882456625,18.981749005783254,0.013796586855647823,-0.003678486228650981,0.04729151094181833,0.04443715931251379,0.0685391102763341,-0.01893662315985999,0.1334390134701404,0.11584165671475866,6935264806127.918,0.0,-7425040096962.112,0.7960162770651402,0.07745668058373742,0.5911690268136814,-0.10429636147281231,0.0685391102763341,-0.01893662315985999,0.1334390134701404
5.3,-73.31358295626423,37.45130925157046,269.4601775174376,281.75569076466013,0,8.70566845758407,195.57122125711322,11.03263495562064,18.982005917247918,0.006853408906906105,-0.0018937717570821615,0.03853671970034608,0.042987761097506474,-0.03471588974370856,0.008923572357844089,-0.04377395620736121,0.0883729973815259,6935264806127.918,0.0,-7425040096962.112,0.7616118263644508,0.08597659260781358,0.633945133964965,-0.103290941459057,-0.03471588974370856,0.008923572357844089,-0.04377395620736121
5.4,-73.31222121161412,37.45091964984231,269.46491891862695,281.75981915351554,0,8.722921172492494,195.85234049737906,11.032633770270342,18.982163963954232,0.01361744650111511,-0.003896017281448373,0.047414011893351676,0.05348097982285629,0.06764037594208969,-0.02002245524366201,0.08877292193005552,0.17322946778915638,6935264806127.918,0.0,-7425040096962.112,0.7941724850344017,0.0829668024164943,0.5916100187942392,-0.11137396182836093,0.06764037594208969,-0.02002245524366201,0.08877292193005552
5.61,-73.31086848412457,37.45051914932913,269.4736617422226,281.76777529592107,0,8.758802992017447,196.44038273173368,11.032631584564443,18.98245539140742,0.006441559474031542,-0.001907145300858052,0.04163249331256902,0.050574872404066704,-0.034170890605159855,0.009470818955192008,-0.027531040860869802,0.19529591050942413,-660934042237.7141,0.0,4075566140766.4756,0.7534766964993885,0.09298979016300074,0.6416397833691737,-0.1091977799946924,-0.034170890605159855,0.009470818955192008,-0.027531040860869802
5.7,-73.30952476362651,37.45010781886229,269.4813794541554,281.7747520081025,0,8.774077892009492,196.69142112358423,11.03262965513646,18.982712648471846,0.014930227756180024,-0.0045703385204376515,0.08575235480887197,0.06137983115569081,0.09431853646831663,-0.02959103577310671,0.4902206832922558,0.3008156065297315,-660934042237.7141,0.0,4075566140766.4756,0.7593801423305587,0.09480471776096361,0.6335953174303505,-0.11362587141411913,0.09431853646831663,-0.02959103577310671,0.4902206832922558
5.9,-73.30819011975184,37.449685627512636,269.48821142115156,281.7808825793625,0,8.807604160037084,197.24711973558604,11.032627947144713,18.982940380705053,0.006673219373354294,-0.0021109567482824314,0.034159834980869136,0.06450555833188779,-0.04128504191412861,0.01229690886077609,-0.25796259914001396,0.3064387939034738,-660934042237.7141,0.0,4075566140766.4756,0.76575692831367,0.09646140153073243,0.6247665594805984,-0.11822973783746352,-0.04128504191412861,0.01229690886077609,-0.25796259914001396
6.0,-73.30686453193266,37.44925258459031,269.4974277107527,281.78929441935855,0,8.824259223897597,197.52382540388928,11.032625643072311,18.983247590358424,0.013255878191813555,-0.004330429223244907,0.09216289601113237,0.06594657804191585,0.06582658818459285,-0.022194724749624837,0.5800306103026344,0.3347911256743523,-660934042237.7141,0.0,4075566140766.4756,0.748729601128604,0.10251869361828603,0.6439609997927377,-0.1191978716191665,0.06582658818459285,-0.022194724749624837,0.5800306103026344
6.2,-73.30554804940076,37.448808719644525,269.5103759913361,281.8012764632816,0,8.85717408098797,198.07488797572614,11.032622406002165,18.983679199711204,0.006582412659525965,-0.0022193247289337115,0.06474140291714997,0.0630841048250067,-0.03336732766143792,0.010555522471555969,-0.13710746546991187,0.26084251873954906,-660934042237.7141,0.0,4075566140766.4756,0.734058153149505,0.10818825575105671,0.6595101112175755,-0.12041736716131578,-0.03336732766143792,0.010555522471555969,-0.13710746546991187
6.3,-73.30424073118691,37.44835403246336,269.51511563213575,281.8054088961389,0,8.873440672205897,198.34922038768065,11.032621221091965,18.98383718773786,0.013073182138470021,-0.004546871811683689,0.04739640799641637,0.06594398826270569,0.06490769478944079,-0.02327547082749986,-0.17344994920733664,0.2609809576738805,-660934042237.7141,0.0,4075566140766.4756,0.7889225947995632,0.0999238720858508,0.591483851499804,-0.1332787027887526,0.06490769478944079,-0.02327547082749986,-0.17344994920733664
6.5,-73.30294257612022,37.44788851307355,269.5296202032623,281.8188813960491,0,8.905669013504703,198.89542650167127,11.032617594949183,18.984320673442078,0.006490775333460868,-0.002327596949029951,0.07252285563282605,0.06298513236780566,-0.032912034025045736,0.011096374313268681,0.1256322381820483,0.1758141341863177,-660934042237.7141,0.0,4075566140766.4756,0.7288788962639039,0.11525840905113163,0.662864073325146,-0.1267370270241126,-0.032912034025045736,0.011096374313268681,0.1256322381820483
6.6,-73.30165363282751,37.447412201740256,269.5343411757234,281.8229979596153,0,8.921577115704102,199.16727592796997,11.03261641470607,18.98447803919078,0.012889432927067946,-0.004763113332941788,0.0472097246108662,0.05978715791298354,0.063986575936071,-0.024355163839118458,-0.25313131021959945,0.21084719003489968,-660934042237.7141,0.0,4075566140766.4756,0.7873407054583186,0.10567677929986331,0.5908436958212642,-0.14082172756174638,0.063986575936071,-0.024355163839118458,-0.25313131021959945
6.8,-73.30037387973273,37.446925108966845,269.5499648214441,281.8375428261234,0,8.953085696251378,199.70840710895135,11.032612508794639,18.98499882738147,0.006398765473889506,-0.002435463867058727,0.0781182286036141,0.06723231173658782,-0.032453337265892175,0.011638247329415295,0.15454251996373938,0.2132553003192282,-660934042237.7141,0.0,4075566140766.4756,0.7251724547427302,0.1221644829719418,0.6643954101347599,-0.13333975016650196,-0.032453337265892175,0.011638247329415295,0.15454251996373938
6.9,-73.29910342505622,37.446427235494646,269.5546838132865,281.8416595205562,0,8.9686212025768,199.9776648134484,11.032611329046677,18.98515612710955,0.012704546765149803,-0.004978734721987594,0.04718991842366879,0.08634519445394301,0.06305781291260264,-0.025432708549288537,-0.30928310179945145,0.3508120286498036,-660934042237.7141,0.0,4075566140766.4756,0.7854079013272626,0.1115693513697077,0.5904776574954044,-0.14840095810468168,0.06305781291260264,-0.025432708549288537,-0.30928310179945145
7.1,-73.2978422568142,37.44591858230275,269.57195072507045,281.85777817136267,0,8.999387049293778,200.51350461616315,11.032607012318731,18.985731690835685,0.006305841210050312,-0.0025432659594670872,0.08633455891981642,0.08359115986625679,-0.03199352777549757,0.012177343812602577,0.19572320248073885,0.4316599099875954,-660934042237.7141,0.0,4075566140766.4756,0.7208916163514776,0.1293148899417499,0.6663490180712809,-0.13989968845192977,-0.03199352777549757,0.012177343812602577,0.19572320248073885
7.2,-73.29659035281809,37.44539918060771,269.5887375315929,281.8734387646732,0,9.014656719258877,200.78006289936673,11.032602815617102,18.986291251053096,0.012519039961205115,-0.0051940169504405,0.16786806522475128,0.10467304629204906,0.0621319875115477,-0.026507509909733985,0.8153350630493442,0.697464378163563,-660934042237.7141,0.0,4075566140766.4756,0.7208453440570498,0.13247403577471042,0.6649897202806789,-0.14360115500182657,0.0621319875115477,-0.026507509909733985,0.8153350630493442
7.4,-73.29534786067389,37.44486903186335,269.5956872086481,281.87969206087513,0,9.04453269534277,201.31039699503822,11.032601078197837,18.98652290695494,0.006212460721002339,-0.0026507437218015162,0.034748385275804566,0.11538477499497861,-0.03153289620101385,0.012716366143194907,-0.665598399744733,0.7114254122417886,-660934042237.7141,0.0,4075566140766.4756,0.7559894037862168,0.12739601303653295,0.6231906599261109,-0.15454345216221427,-0.03153289620101385,0.012716366143194907,-0.665598399744733
7.5,-73.29411467778166,37.44432813776046,269.6140205330471,281.89683400861816,0,9.05941772537714,201.57414923718915,11.032596494866738,18.987134017768238,0.012331828922214115,-0.005408941028903788,0.18333324399009207,0.10899974045072729,0.06119368201211798,-0.027581973071022812,1.4858485871428804,0.784090790566824,27165101110483.656,0.0,-31818718153.01345,0.7169585907770556,0.139686431452318,0.6662290514936811,-0.1503227558452989,0.06119368201211798,-0.027581973071022812,1.4858485871428804
7.71,-73.29289090133479,37.44377653022659,269.63554188263794,281.91702627522216,0,9.09006102104583,202.1248939586155,11.03259111452934,18.987851396087933,0.005827506889894657,-0.002626702542213047,0.1024826170992453,0.09827061925992482,-0.030972962058664094,0.01324875469852734,-0.3850029851945085,0.6829636765662859,1631869535739.6863,0.0,-4519632911464.99,0.7125084471781172,0.14390362454824118,0.6694518606583564,-0.15315895599922144,-0.030972962058664094,0.01324875469852734,-0.3850029851945085
7.8,-73.29167657831945,37.44321421142577,269.6402773363248,281.9211650588757,0,9.10296161176407,202.35960620296817,11.03258993066592,18.98800924454416,0.013492477948141712,-0.006247986675826203,0.052616152076249596,0.1000760528373571,0.08516634509163408,-0.04023649037347957,-0.554071833588842,0.6806357418994698,-3.664017311251331,0.0,-0.6196938387263884,0.778803505560564,0.12980453996700367,0.5892195830387851,-0.17156970622499565,0.08516634509163408,-0.04023649037347957,-0.554071833588842
8.0,-73.29047167551408,37.44264117375818,269.6631922740874,281.9426925528264,0,9.13134410453992,202.87829479190856,11.032584201931478,18.988773075802914,0.006024514026847777,-0.002865188337928257,0.11457468881303602,0.08873705384168604,-0.03733981960646964,0.016913991689489715,0.30979268368393187,0.47194942356788,-3.664017311251331,0.0,-0.6196938387263884,0.709522889562849,0.15107477926796242,0.6694124442801201,-0.16012701114564207,-0.03733981960646964,0.016913991689489715,0.30979268368393187
8.11,-73.28927628948864,37.44205746986001,269.667894577001,281.94680181233804,0,9.146631566859252,203.16184574156526,11.03258302635575,18.988929819233366,0.01086714568585158,-0.005306399074294721,0.04274820830532526,0.07708198890556502,0.044023924172762074,-0.02219282487605888,-0.6529680046155557,0.5480076626202468,-3.664017311251331,0.0,-0.6196938387263884,0.7770817120480609,0.13583220981736235,0.5877422919361415,-0.1795901496358811,0.044023924172762074,-0.02219282487605888,-0.6529680046155557
8.3,-73.28809035660417,37.44146309260304,269.6920132272551,281.9694830033961,0,9.172782874492476,203.64867307169013,11.032576996693185,18.989733774241838,0.006241752023515161,-0.0031283013524928413,0.12694026449516405,0.0928466784836921,-0.02434417717019152,0.011463672220009817,0.4431160852096748,0.5310927345364392,-3.664017311251331,0.0,-0.6196938387263884,0.7067559231773558,0.15825407908323266,0.668951981118166,-0.167197363810924,-0.02434417717019152,0.011463672220009817,0.4431160852096748
8.41,-73.28691400301213,37.44085805509443,269.69671540817285,281.97359436291833,0,9.187587574809584,203.92879124602558,11.032575821147956,18.98989051360576,0.010694123564033788,-0.005500340987329007,0.04274709925249993,0.1167341168387183,0.04047610491380591,-0.02156399668032889,-0.7653924112969506,0.6700111839654164,-3.664017311251331,0.0,-0.6196938387263884,0.7747426459831903,0.14207627570446554,0.5868638484373717,-0.1875606242637069,0.04047610491380591,-0.02156399668032889,-0.7653924112969506
8.6,-73.2857471246538,37.44024236067644,269.72204610423046,281.9974372832092,0,9.212905586832859,204.40959219755445,11.032569488473943,18.990734870141015,0.006141465043858852,-0.003240496936777961,0.13331945293478084,0.11495783451431874,-0.023961360632499727,0.011893916055531853,0.47669659832779554,0.7380577888693578,-3.664017311251331,0.0,-0.6196938387263884,0.7039978957872417,0.1654952430180963,0.6682844166951534,-0.17433939792237407,-0.023961360632499727,0.011893916055531853,0.47669659832779554
8.7,-73.28458984725982,37.43961603292611,269.74542970107586,282.0194191937713,0,9.226112171061768,204.6610771556343,11.03256364257473,18.991514323369195,0.011572773939718714,-0.006263277503322251,0.23383596845406002,0.1302713337928412,0.054313088958598814,-0.03022780566544301,1.0051651551927954,0.9301544674852632,327346454528.88074,0.0,-2355078001949.833,0.7044606118290638,0.16864653295583834,0.6659321837400177,-0.1784038115137893,0.054313088958598814,-0.03022780566544301,1.0051651551927954
8.9,-73.28344223634949,37.43897908565495,269.7524163855476,282.0257190520509,0,9.251667658909124,205.16074781199663,11.032561895903612,18.991747212851585,0.0057380545516849376,-0.0031847363558057226,0.034933422358562706,0.15198463200929196,-0.029173596940168727,0.01539270573758256,-0.9945127304774813,0.8331773399536593,6.188067117491103,0.0,-0.22559695234725297,0.7450536197881155,0.16003619251892612,0.6181205857982924,-0.19290013514004375,-0.029173596940168727,0.01539270573758256,-0.9945127304774813
9.02,-73.2823041972303,37.43833154290866,269.77682524569383,282.048684125308,0,9.266905376620768,205.45840883930293,11.032555793688577,18.992560841523126,0.009483659326529491,-0.005396189552442401,0.2034071678854364,0.13491598266567723,0.031213373123704816,-0.018428776638639104,1.4039478793906233,0.9508830728526266,2.268175226756192,0.0,0.41837293293455885,0.7016542338882632,0.17595418663507617,0.6650241041854612,-0.18564590252571767,0.031213373123704816,-0.018428776638639104,1.4039478793906233
9.2,-73.28117580499735,37.4376733989668,269.8043293707909,282.07461116540225,0,9.289246533780641,205.90183946278617,11.032548917657302,18.99347764569303,0.006268845738648891,-0.003656355232529847,0.15280069498386561,0.11656681974066005,-0.017860075488225588,0.009665746221736425,-0.28114707167539366,0.8456398909140365,311174194837.34467,0.0,-2437828572038.282,0.6986108581950836,0.18009141288203015,0.6662180240118318,-0.18884781253658459,-0.017860075488225588,0.009665746221736425,-0.28114707167539366
9.3,-73.28005714453273,37.43700468834251,269.8089653513622,282.07866611836056,0,9.301329535281177,206.14658222417873,11.03254775866216,18.99363217837874,0.011186604646127148,-0.006687106242892942,0.046359805712653974,0.11914349156792306,0.04917758907478187,-0.030307510103630517,-1.0644088927121014,0.8383757772515631,316660590916.58514,0.0,11336904038.8625,0.7683200593876854,0.1607224591977909,0.5821089964879504,-0.21213602631262146,0.04917758907478187,-0.030307510103630517,-1.0644088927121014
9.5,-73.27894815050509,37.43632541578216,269.83742767919597,282.1055123162362,0,9.325205286370707,206.63257072314389,11.0325406430802,18.994580922639866,0.00554497013823154,-0.003396362801773035,0.1423116391688955,0.10674897634736011,-0.02820817253947814,0.016453717205599593,0.4797591672812094,0.6526374067609118,316660590916.46497,0.0,11336904039.523891,0.6959376316698304,0.18743611030070548,0.6648651525137899,-0.19619593867851653,-0.02820817253947814,0.016453717205599593,0.4797591672812094
9.6,-73.27784893736901,37.43563559626501,269.84209334736454,282.1095980279154,0,9.336804070075642,206.87379486130766,11.032539476663159,18.99473644491215,0.010992131360723119,-0.006898195171487511,0.04665668168570408,0.08492522380411975,0.054471612224915984,-0.03501832369714488,-0.9565495748319176,0.777113796829776,287931610591.10767,0.0,-2454619211750.8525,0.7651757754579449,0.1673193736081904,0.5813928592150367,-0.22021036106745745,0.054471612224915984,-0.03501832369714488,-0.9565495748319176
9.8,-73.27675944936452,37.43493523500292,269.87040915024176,282.13630674971233,0,9.359698832486359,207.35264931030852,11.032532397712439,18.995680305008058,0.005447440022479071,-0.0035018063104530297,0.14157901438608103,0.10337746073105483,-0.02772345669122009,0.016981944305172317,0.4746116635018822,0.6620814599541012,287931610595.01215,0.0,-2454619211751.5146,0.6937787373419755,0.19465130905972475,0.6627703186480106,-0.20375827888143438,-0.02772345669122009,0.016981944305172317,0.4746116635018822
9.91,-73.27567978051646,37.434224367439995,269.87505668352196,282.1403775095348,0,9.371899067548618,207.61395197282562,11.032531235829119,18.995835222784066,0.009815171346035278,-0.0064624323902055004,0.042250302547328054,0.125058405619266,0.03970664839596572,-0.026914782543204417,-0.9029882894432135,0.7868104927564342,-23242584245.536232,0.0,-16790639713.68391,0.7627258187474715,0.17365553616884338,0.5795330373391749,-0.2285487668011827,0.03970664839596572,-0.026914782543204417,-0.9029882894432135
10.11,-73.27460987463407,37.433502999252234,269.90311064423724,282.16683847417335,0,9.393757670112091,208.08523338561238,11.03252422233894,18.996770354807907,0.005349529411944351,-0.0036068409388079333,0.14026980357641655,0.12276512220812803,-0.022328209670454714,0.014277957256987887,0.4900975051454442,0.820625565255807,-72597625922.03622,0.0,-4960063415393.01,0.6915900905388086,0.2018705545593659,0.6605107556272014,-0.2113692682752157,-0.022328209670454714,0.014277957256987887,0.4900975051454442
10.21,-73.2735497353104,37.432771146347214,269.92816403077563,282.19043070864956,0,9.404543563826579,208.31900697273568,11.032517958992306,18.997605467692523,0.01060139323669758,-0.007318529050195262,0.25053386538388267,0.14405827830142154,0.05251863824753155,-0.037116881113872756,1.1026406180746455,1.1487031696374301,-72597625925.97063,0.0,-4960063415393.002,0.6921995866395547,0.20491320966072252,0.6575219003990866,-0.21572032648349115,0.05251863824753155,-0.037116881113872756,1.1026406180746455
10.4,-73.27249953592181,37.43202882486369,269.93506794289914,282.1966634734094,0,9.42415913391567,208.75970075385504,11.032516233014276,18.997835598096636,0.00552736520308816,-0.003906955176428325,0.0363363795973951,0.16117159442174836,-0.026705410703207547,0.01795565196719445,-1.1273551883499375,1.0866236338419535,24932001234417.68,0.0,15347542261.910547,0.7330201312319224,0.19352912567938188,0.6090824130370214,-0.2329089497024717,-0.026705410703207547,0.01795565196719445,-1.1273551883499375
10.5,-73.27145915962747,37.4312760511713,269.959853981761,282.220002685943,0,9.434444991005645,208.9897959256961,11.03251003650456,18.998661799392032,0.010403762943411757,-0.0075277369239046535,0.24786038861862014,0.14256714281276855,0.04876397740323614,-0.03620781747476341,2.1152400902122577,1.1562069113181717,24932001234417.68,0.0,15347542261.910547,0.6898954777581154,0.21213972374019943,0.6550775936247355,-0.22341511522535645,0.04876397740323614,-0.03620781747476341,2.1152400902122577
10.7,-73.27042868936876,37.430512851870155,269.9857063499236,282.2443633554886,0,9.4542580720486,209.4461108084199,11.03250357341252,18.999523544997455,0.005152351293560305,-0.0038159965057360658,0.1292618408129447,0.11799988118293545,-0.026257058249257354,0.018558702090843003,-0.5929927390283793,1.017789260974108,24932001234417.68,0.0,15347542261.910547,0.6879226933420898,0.2160273057550921,0.6546463562268285,-0.22700819243387976,-0.026257058249257354,0.018558702090843003,-0.5929927390283793
10.8,-73.26940817786894,37.429739223790506,269.99026965137546,282.24836095098686,0,9.46381831028365,209.6723102387163,11.032502432587156,18.99967565504585,0.010205114998171748,-0.007736280796493023,0.045633014518670544,0.1199063351436482,0.05052763704611371,-0.03920284290756902,-0.8362882629427296,0.9590450442791635,24932001234417.68,0.0,15347542261.910547,0.7553821717865987,0.19249960207431643,0.5725795682102804,-0.25395731101175256,0.05052763704611371,-0.03920284290756902,-0.8362882629427296
11.0,-73.26839757763244,37.42895519399234,270.0158433915489,282.27245783632054,0,9.48257315403836,210.120742811271,11.032496039152113,19.00052811305163,0.005053001182488988,-0.0039201489908436,0.1278687008672823,0.09323561588580837,-0.02576056907841389,0.019080659028247186,0.41117843174306024,0.6027696881709442,24932001234417.68,0.0,15347542261.910547,0.6854791801031808,0.22327601904511654,0.6520518270433752,-0.23472223544826834,-0.02576056907841389,0.019080659028247186,0.41117843174306024
11.1,-73.26739697094453,37.42816077976504,270.02031377733726,282.2763690617151,0,9.491600509133468,210.34295602326654,11.032494921555665,19.000677125911242,0.010006066879100252,-0.007944142273004245,0.04470385788351921,0.0758125701397649,0.049530656966112814,-0.0402399328216066,-0.8316484298376339,0.6332754700640061,24932001234417.68,0.0,15347542261.910547,0.753854833544278,0.19826635504414966,0.5685891387523362,-0.26286828202031687,0.049530656966112814,-0.0402399328216066,-0.8316484298376339
11.31,-73.26640632987076,37.42735601862695,270.0443962171112,282.2990421579622,0,9.51012075599029,210.80520245661052,11.032488900945722,19.00147987390371,0.0047173384465232825,-0.0038321958956408727,0.11467828463791839,0.0939559606047446,-0.025184421107509274,0.019580697035063602,0.33321155597332813,0.5684757107593245,24932001234417.68,0.0,15347542261.910547,0.6837703171352912,0.23021084796265345,0.6484913139956714,-0.24273469994458335,-0.025184421107509274,0.019580697035063602,0.33321155597332813
11.41,-73.26542572625644,37.426540898325094,270.0484300207368,282.3025382938106,0,9.518585572674432,211.0232032194721,11.032487892494816,19.00161433402456,0.009806036143231757,-0.008151203018584881,0.04033803625588931,0.11455002546433594,0.050886976967084926,-0.04319007122944024,-0.7434024838202934,0.6717775365318281,24932001234417.68,0.0,15347542261.910547,0.7586527934258156,0.2008516574434489,0.5558340498613281,-0.2741405839057415,0.050886976967084926,-0.04319007122944024,-0.7434024838202934
11.6,-73.2644550717262,37.42571543683465,270.0746404995911,282.327249825268,0,9.534352622539444,211.43359810560466,11.032481339875101,19.00248801665304,0.0051087080538686335,-0.004344534160226574,0.1379498887068194,0.11146215546931629,-0.024722779417700715,0.02003509925451746,0.5137465918470019,0.695722132096386,24932001234417.68,0.0,15347542261.910547,0.6795822526387342,0.2380391905022587,0.6473477876544396,-0.2498922717940586,-0.024722779417700715,0.02003509925451746,0.5137465918470019
11.7,-73.26349448768357,37.42487966235864,270.0977052665796,282.34895365940525,0,9.542478248138067,211.64757386401845,11.032475573683355,19.003256842219322,0.009605840426303337,-0.008357744760090243,0.23064766988511648,0.13728555326948844,0.0449713237243472,-0.040132105998636834,0.9269778117829741,1.102646112984964,24932001234417.68,0.0,15347542261.910547,0.6802796848436298,0.24085579858273987,0.6437609692903218,-0.2545188580370965,0.0449713237243472,-0.040132105998636834,0.9269778117829741
11.91,-73.26254404531038,37.424033593327515,270.10410133615255,282.35471345277045,0,9.558521339111604,212.09233335092716,11.032473974665962,19.003470044538417,0.00452591606283529,-0.004028900148222447,0.030457474156805893,0.15437402504312478,-0.024190116016514412,0.020613545770798946,-0.9532866463252847,1.0695849158345536,24932001234417.68,0.0,15347542261.910547,0.7224596228104869,0.22566112098039118,0.592888183888504,-0.274977732356265,-0.024190116016514412,0.020613545770798946,-0.9532866463252847
12.0,-73.2616036155664,37.42317724839873,270.12602052432106,282.37532421228906,0,9.565338377177664,212.28102409047852,11.032468494868919,19.004200684144035,0.010449219377524833,-0.009514943653164857,0.2435465352056734,0.13096129532454026,0.06581448127432836,-0.06095603894380466,2.3676562338763096,1.0741614283906227,-57852606246191.83,0.0,-2555837907686.8643,0.6782606986768974,0.24774705331672486,0.6400442815448195,-0.262539787203735,0.06581448127432836,-0.06095603894380466,2.3676562338763096
12.2,-73.2606733291888,37.42231064645635,270.1515384486735,282.39937910156794,0,9.57971409712487,212.696166348446,11.032462115387832,19.00505128162245,0.004651431887978691,-0.004333009711885454,0.12758962176207023,0.1370800111306608,-0.028988937447730817,0.025909669706397107,-0.579784567218018,1.3709750362446278,-57852606246191.83,0.0,-2555837907686.8643,0.6741440883271275,0.25245843679433877,0.6413921593386418,-0.2653499270847068,-0.028988937447730817,0.025909669706397107,-0.579784567218018
12.4,-73.25975321669179,37.42143380661063,270.1555518283917,282.4028635357934,0,9.593123517182995,213.10549604073105,11.032461112042903,19.00518506094639,0.004600562485066437,-0.004384199228617523,0.020066898591153296,0.13950200512171346,-0.00025434701456126515,-0.0002559475836603464,-0.5376136158545818,1.620275902278451,-57852606246191.83,0.0,-2555837907686.8643,0.7490663198788196,0.21950186746733505,0.5485089514602841,-0.2997607525502532,-0.00025434701456126515,-0.0002559475836603464,-0.5376136158545818
12.5,-73.25884317836605,37.42054674819758,270.18168018426684,282.42750526455444,0,9.599786040553841,213.30795839382168,11.032454579953933,19.00605600614223,0.009100383257418831,-0.008870584130491497,0.26128355875130277,0.11623639302921758,0.0449982077235241,-0.044863849018739896,2.4121666016015033,1.2328570424564715,-57852606246191.83,0.0,-2555837907686.8643,0.6707196928049803,0.25986399432325336,0.6388898073801043,-0.2728105792739172,0.0449982077235241,-0.044863849018739896,2.4121666016015033
12.6,-73.25794338427836,37.41964949077855,270.1858053387151,282.431099285183,0,9.606038736568184,213.50894039868865,11.032453548665321,19.006193511290505,0.008997940876867037,-0.0089725741902669,0.04125154448274785,0.09934519152139171,-0.0010244238055179477,-0.0010199005977540347,-2.200320142685557,1.2892796308153653,-57852606246191.83,0.0,-2555837907686.8643,0.7434632641838587,0.22691684475765336,0.5489211955725809,-0.3073379921608802,-0.0010244238055179477,-0.0010199005977540347,-2.200320142685557
12.8,-73.25705372427115,37.418742034139825,270.2112993157935,282.4551370637602,0,9.618144713736385,213.90642769994,11.03244717517105,19.00704331052645,0.004448300036088403,-0.004537283193641859,0.12746988539191695,0.1210358813637515,-0.02274820420389305,0.022176454983125087,0.4310917045458432,1.2699483115081402,-57852606246191.83,0.0,-2555837907686.8643,0.6679651044937268,0.26692586367401727,0.6354979541596931,-0.2805629211770668,-0.02274820420389305,0.022176454983125087,0.4310917045458432
12.9,-73.25617433796202,37.41782443829211,270.2154377412153,282.4587464710649,0,9.623824505824299,214.10291533028746,11.032446140564696,19.00718125804051,0.00879386309122768,-0.009175958477172263,0.04138425421786011,0.1165816375375928,0.04345563055139293,-0.046386752835304204,-0.8608563117405715,1.006989617304431,-57852606246191.83,0.0,-2555837907686.8643,0.7396993711962653,0.2332587692118552,0.5466281788921822,-0.3156466709449613,0.04345563055139293,-0.046386752835304204,-0.8608563117405715
13.1,-73.25530513474341,37.41689670347018,270.2413070423655,282.4831462605665,0,9.634782973649124,214.491334887058,11.032439673239407,19.00804356807885,0.004346016093066412,-0.00463867410964271,0.12934650575118714,0.11438423325862898,-0.022239234990806423,0.02268642183764785,0.43981125766663676,0.7744637304530194,-57852606246191.83,0.0,-2555837907686.8643,0.6645214240810743,0.2742096366203833,0.6326666409173968,-0.28801609953625174,-0.022239234990806423,0.02268642183764785,0.43981125766663676
13.2,-73.25444616378199,37.41595884013239,270.265205348316,282.5056620329163,0,9.64008225371969,214.6832495504536,11.03243369866292,19.0088401782772,0.008589709614170746,-0.009378633377892276,0.23898305950467688,0.13317075359472225,0.0424369352110435,-0.04739959268249583,1.0963655375349013,1.0330800722235973,-57852606246191.83,0.0,-2555837907686.8643,0.6641616203427982,0.277191858516963,0.6297572186382626,-0.29233518640174,0.0424369352110435,-0.04739959268249583,1.0963655375349013
13.4,-73.25359755401846,37.41501088896021,270.2715137898406,282.5113515607454,0,9.649684221289045,215.06244600009956,11.032432121552539,19.009050459661353,0.004243048817684758,-0.004739755860896341,0.03154220762297638,0.1522099237097801,-0.021733303982429827,0.023194387584979548,-1.037204259408497,0.9478883350902889,-57852606246191.83,0.0,-2555837907686.8643,0.7064974059313652,0.25844480225064603,0.5782348197359752,-0.31577237505326616,-0.021733303982429827,0.023194387584979548,-1.037204259408497
13.51,-73.25275912416694,37.41405287085781,270.2958521994301,282.53429134840025,0,9.654842275225526,215.26835139763472,11.032426036950142,19.009861739981005,0.007622089559204594,-0.008709255476382193,0.2212582689956198,0.13488093212140057,0.03071855219563504,-0.036086360140780656,1.7246914670240399,1.054887336541749,16878243387969.25,0.0,2553271969816.185,0.6605330986561353,0.28442385130455755,0.6268850059455925,-0.2996903196791672,0.03071855219563504,-0.036086360140780656,1.7246914670240399
13.7,-73.25193105271468,37.41308478695156,270.32213401130696,282.5590919660068,0,9.663037462910298,215.61953260223407,11.032419466497172,19.010737800376898,0.004358270801375116,-0.005095178453953372,0.13832532566766567,0.11357039370081365,-0.017177993462260458,0.01902145801278332,-0.436489175410286,0.9271639334415489,-280656725970.3491,0.0,-2530889802517.7524,0.6576284056273634,0.28854826952718704,0.6265240788208783,-0.3028734965666817,-0.017177993462260458,0.01902145801278332,-0.436489175410286
13.8,-73.2511133479216,37.41210666858958,270.32622576143996,282.5626650258611,0,9.666969318359119,215.80207290163648,11.03241844355964,19.010874192047996,0.008177047930786214,-0.00978118361977906,0.04091750132999947,0.11565442952851426,0.03818777129411044,-0.04686005165825622,-0.9740782433766482,0.9040249992889638,-335604486246.86316,0.0,-3435184045.96875,0.7296673148318688,0.2509649147727179,0.5369177083777494,-0.3410595192185071,0.03818777129411044,-0.04686005165825622,-0.9740782433766482
14.0,-73.25030591781987,37.41111854734127,270.35274878755854,282.58769945807296,0,9.674426947852506,216.16237186624852,11.03241181280311,19.011758292918618,0.004037150508651181,-0.004940606241561358,0.13261513059291066,0.09822450757709951,-0.020699487110675235,0.0242028868910886,0.4584881463145576,0.6527952237690131,-335604486248.39,0.0,-3435184045.0639887,0.6540672937835711,0.2956343917659606,0.623355767948863,-0.3101997230377382,-0.020699487110675235,0.0242028868910886,0.4584881463145576
14.1,-73.24950891021359,37.41012042499684,270.35681252916726,282.5912485317468,0,9.677768327319374,216.34011451823014,11.032410796867708,19.01189375097224,0.007970076062804338,-0.009981223444270916,0.040637416087179336,0.0781982571409206,0.03932925554153171,-0.05040617202709576,-0.9197771450573166,0.7432588857163045,-335604486242.72626,0.0,-3435184045.0576677,0.7264530757832915,0.2565480948910351,0.533158145800429,-0.34955885807603887,0.03932925554153171,-0.05040617202709576,-0.9197771450573166
14.3,-73.2487222126783,37.40911231356684,270.38366432756,282.61660058297673,0,9.684045763949957,216.69074666367496,11.03240408391811,19.012788810918664,0.003933487676448501,-0.005040557150017806,0.13425899196363317,0.09826458219916992,-0.020182941931779077,0.02470333147126542,0.4681078793822667,0.6602730817400453,-335604486238.0025,0.0,-3435184045.958,0.6503931283217349,0.30268973509870395,0.6201570521228686,-0.3174475288925989,-0.020182941931779077,0.02470333147126542,0.4681078793822667
14.41,-73.2479459825607,37.4080942652816,270.3876846258338,282.62011093434893,0,9.687053398557447,216.88081797993723,11.032403078843542,19.012922820861128,0.007056637432805799,-0.009254984411264627,0.03654816612559214,0.12103780768900962,0.028392270512339224,-0.03831297510224403,-0.8882802348912866,0.775253691282509,-54947760266.10332,0.0,2527454618472.2397,0.7234859530677009,0.26183131165264234,0.5288965639106966,-0.3581631815743151,0.028392270512339224,-0.03831297510224403,-0.8882802348912866
14.6,-73.2471800869781,37.407066302590856,270.4148603689029,282.64577603140276,0,9.691885330512319,217.20444565163936,11.032396284907774,19.01382867896343,0.004031029382046761,-0.00541032995127318,0.14303022667951718,0.11885594064424021,-0.01592425289873182,0.020235023473639247,0.5604318976522384,0.8062207743816872,-54947760266.10332,0.0,2527454618472.2397,0.6466709324787956,0.3096652760711301,0.616885715158091,-0.3246169070099189,-0.01592425289873182,0.020235023473639247,0.5604318976522384
14.7,-73.24642462281827,37.406028428163175,270.4394904035122,282.6690072372741,0,9.694243603590284,217.37238167213866,11.032390127399122,19.014649680117074,0.007554641598375183,-0.010378744276806665,0.2463003460928812,0.1394623242507762,0.035236122163284346,-0.049684143255335024,1.032701194133644,1.1247124383608915,-54947760266.10332,0.0,2527454618472.2397,0.6463708130808589,0.31228228014734993,0.613559505216405,-0.32898219262106243,0.035236122163284346,-0.049684143255335024,1.032701194133644
14.9,-73.24567968673887,37.40498068488547,270.44569627825086,282.674612953192,0,9.697932466868796,217.70326335739577,11.032388575930437,19.014856542608364,0.003724680396999227,-0.00523871638851145,0.031029373693342965,0.15757082501916658,-0.019149806006879676,0.02570013944147594,-1.0763548619976855,1.0553471960557335,-54947760266.10332,0.0,2527454618472.2397,0.6891748510523503,0.28949763309673004,0.5610413707944611,-0.3556145741746726,-0.019149806006879676,0.02570013944147594,-1.0763548619976855
15.0,-73.24494514516718,37.403923075862515,270.46940564356566,282.69696644988477,0,9.699684029643766,217.86619431635535,11.032382648589108,19.015646854785523,0.007345415716883989,-0.0105760902295771,0.23709365314800918,0.13573295663511784,0.03620735319884775,-0.05337373841065669,2.0606427945466694,1.1381496840159822,-54947760266.10332,0.0,2527454618472.2397,0.6433524470678177,0.31869322232511654,0.6093597752001331,-0.3364712814846578,0.03620735319884775,-0.05337373841065669,2.0606427945466694
15.2,-73.24422107429973,37.402855634416404,270.49515315177433,282.7212715891603,0,9.70237181946891,218.1870002605127,11.032376211712055,19.016505105059146,0.0036203543372437383,-0.00533720723055355,0.128737541043336,0.11274202169821726,-0.01862530689820132,0.02619441499511784,-0.5417805605233678,1.031529814680815,-54947760266.10332,0.0,2527454618472.2397,0.6402111234026043,0.3227585722024664,0.608941905567563,-0.33933225190828203,-0.01862530689820132,0.02619441499511784,-0.5417805605233678
15.3,-73.24350758010192,37.40177839408608,270.49829805707833,282.7239531441451,0,9.703318871113735,218.34486098772135,11.03237542548573,19.016609935235945,0.007134941978108498,-0.010772403303249536,0.03144905303997758,0.11293672285843948,0.0351458764086471,-0.05435196072695909,-0.9728848800335704,1.0196691071896258,-54947760266.10332,0.0,2527454618472.2397,0.7317922109370396,0.26345019250730334,0.49048850870154215,-0.3930587474048647,0.0351458764086471,-0.05435196072695909,-0.9728848800335704
15.5,-73.24280454830767,37.400691358626766,270.5246022155759,282.7487940488879,0,9.704813550534473,218.65546287267864,11.032368849446106,19.017486740519196,0.0035151589712256862,-0.005435177296568857,0.13152079248783413,0.09147492947962438,-0.018098915034414124,0.02668613003340349,0.5003586972392845,0.707543986455976,-54947760266.10332,0.0,2527454618472.2397,0.6361828288850535,0.3295736092029782,0.6056429339376617,-0.34619254890900586,-0.018098915034414124,0.02668613003340349,0.5003586972392845
15.6,-73.2421121044191,37.39959457200949,270.5275997852747,282.75133758348295,0,9.705159438312679,218.80819022595023,11.03236810005368,19.017586659509156,0.0069244388856759785,-0.010967866172748624,0.029975696987776353,0.07147228853321955,0.03409279914450304,-0.055326888761797866,-1.0154509550005812,0.7876561513678688,-54947760266.10332,0.0,2527454618472.2397,0.7319459210874388,0.26506170749936897,0.480810840172896,-0.4035076155331067,0.03409279914450304,-0.055326888761797866,-1.0154509550005812
15.8,-73.24143010370616,37.39848801842051,270.55359412610414,282.7758852594272,0,9.705451234258522,219.1084638150948,11.032361601468473,19.018453137536806,0.0034100035647099776,-0.005532767944913501,0.12997170414735068,0.09265898156064908,-0.01757217660482991,0.027175491139175473,0.499980035797869,0.7121505507050406,-54947760266.10332,0.0,2527454618472.2397,0.6326188334075367,0.335998950928048,0.6017753127483392,-0.3532203130625094,-0.01757217660482991,0.027175491139175473,0.499980035797869
15.91,-73.24075876120628,37.39737178226081,270.5564922999282,282.77833666279844,0,9.70515674847293,219.2706541433393,11.032360876925017,19.01854974333094,0.006103113635318086,-0.010147601451781105,0.026347034764223252,0.11264128911612607,0.0244828188237102,-0.0419530318806148,-0.9420424489375269,0.7785241093029998,-54947760266.10332,0.0,2527454618472.2397,0.7308602409724453,0.2673677329570804,0.47280320062821474,-0.41329763732061986,0.0244828188237102,-0.0419530318806148,-0.9420424489375269
16.1,-73.2400979017241,37.39624583814556,270.5830475705572,282.8034242650035,0,9.704293744548353,219.54582189342418,11.032354238107361,19.019434919018572,0.003478207800954232,-0.0059260216592199495,0.13976458225783878,0.11055146558148307,-0.013815293865072822,0.022218841013479616,0.5969344604927093,0.7963159413045352,-54947760266.10332,0.0,2527454618472.2397,0.6285199785282464,0.3426232920588848,0.5983786491585859,-0.35988179804031617,-0.013815293865072822,0.022218841013479616,0.5969344604927093
16.21,-73.23944759983107,37.395110230903576,270.60848900375976,282.82744788087274,0,9.703565010561551,219.70223234012272,11.032347877749059,19.02028296679199,0.00591183539119752,-0.01032370219985787,0.23128575638690105,0.13579408370037765,0.022123887184030012,-0.03997891400579949,0.8320106739005704,1.1660712387653778,-54947760266.10332,0.0,2527454618472.2397,0.6272622049489697,0.3454064614854091,0.5958271323668646,-0.3636296618019004,0.022123887184030012,-0.03997891400579949,0.8320106739005704
16.4,-73.23880801986519,37.39396500557674,270.6125003672751,282.8309689090596,0,9.701337766311099,219.96736217026677,11.03234687490818,19.02041667890917,0.003366210346724258,-0.006027501720196717,0.021112439554527854,0.15564174802162956,-0.013398026549859436,0.02261158147190108,-1.1061753517493458,1.0995303618967127,-54947760266.10332,0.0,2527454618472.2397,0.6982013273464683,0.2971323424403987,0.5062703922425341,-0.409777460954238,-0.013398026549859436,0.02261158147190108,-1.1061753517493458
16.5,-73.23817894593067,37.392810127419494,270.63810133082444,282.8551484355464,0,9.700111070216082,220.1043312027646,11.032340474667294,19.021270044360815,0.006290739345189333,-0.01154878157244338,0.25600963549322475,0.13418671391826828,0.029245289984650334,-0.05521279852246585,2.348971959386936,1.200381762379814,-54947760266.10332,0.0,2527454618472.2397,0.6233356981181528,0.3517421884527398,0.5921374427506545,-0.37027461323556554,0.029245289984650334,-0.05521279852246585,2.348971959386936
16.71,-73.23756049189758,37.39164567189825,270.6649750661221,282.8805475114923,0,9.69661737315813,220.3861572640814,11.032333756233468,19.022165835537404,0.0029450192051799916,-0.005545026291625389,0.12797016808414238,0.11327893989818907,-0.015932000666711084,0.028589310861037935,-0.6097117495670564,1.1271435142253992,-54947760266.10332,0.0,2527454618472.2397,0.6206948394858034,0.35528967767035524,0.5909884360944285,-0.37314853554482763,-0.015932000666711084,0.028589310861037935,-0.6097117495670564
16.8,-73.23695280140161,37.39047167469086,270.66760024688773,282.8827468247217,0,9.69476240686503,220.5045198979427,11.032333099938278,19.022253341562923,0.006752116621871422,-0.013044413415504648,0.029168675173549617,0.1147092999147928,0.04230108240768263,-0.08332652359865855,-1.0977943656732545,1.1077548029734212,-54947760266.10332,0.0,2527454618472.2397,0.7273586661433604,0.27262578885167565,0.44810184708469486,-0.4425260271198046,0.04230108240768263,-0.08332652359865855,-1.0977943656732545
17.01,-73.23635565784376,37.38928812168599,270.69424834885643,282.90793333775747,0,9.690013423783132,220.775021494724,11.032326437912786,19.023141611628546,0.002843540751687853,-0.00563596668982988,0.1268957236604923,0.09165140385770763,-0.01861226604849311,0.035278317741308275,0.46536689755686794,0.7587117890505202,-54947760266.10332,0.0,2527454618472.2397,0.6169513419762164,0.3613328732042822,0.5870228343883028,-0.3797549055409385,-0.01861226604849311,0.035278317741308275,0.46536689755686794
17.11,-73.23576929438995,37.38809508898263,270.6968666497905,282.9101291444659,0,9.687343775459846,220.90102607307088,11.032325783337551,19.02322888832635,0.005863634538059284,-0.011930327033624876,0.02618300934045748,0.07106800344016856,0.030200937863714958,-0.0629436034379513,-1.0071271432003697,0.8527975144958309,-54947760266.10332,0.0,2527454618472.2397,0.7234439567195943,0.27653497855496406,0.4440443743263843,-0.45053506051204645,0.030200937863714958,-0.0629436034379513,-1.0071271432003697
17.3,-73.23519348397087,37.38689254288946,270.7236344294899,282.93543351330226,0,9.681944023696332,221.13542212361364,11.032319091392628,19.024121147649666,0.003030581153047075,-0.006329189964042938,0.14088305104953658,0.09288563275361732,-0.014910807289537841,0.02947966878727316,0.6036844300477807,0.758336112124141,-54947760266.10332,0.0,2527454618472.2397,0.6130055119621102,0.36737798974543706,0.5832318637703394,-0.3861324229298142,-0.014910807289537841,0.02947966878727316,0.6036844300477807
17.41,-73.23462850928162,37.38568056992428,270.7260634698026,282.93745133231215,0,9.67836121181027,221.26811091169353,11.03231848413255,19.02420211566009,0.005136133538676637,-0.011017936047091444,0.02208218466121677,0.11837093251114805,0.019141385323905212,-0.04262496439135027,-1.0800078762574583,0.8903901432443664,-54947760266.10332,0.0,2527454618472.2397,0.7260375872476503,0.27340107495222726,0.42909673559026407,-0.46259838480517423,0.019141385323905212,-0.04262496439135027,-1.0800078762574583
17.6,-73.2340740927814,37.38445913681344,270.75296185463577,282.96288404353834,0,9.671838252821594,221.49206935496062,11.032311759536341,19.02509872848786,0.0029179815801159406,-0.006428595320223327,0.14157044649024053,0.11687274013354462,-0.011674483992424642,0.02415442487825309,0.628885588573805,0.92189472381469,-54947760266.10332,0.0,2527454618472.2397,0.6090387654440472,0.37331588490486844,0.5794239809895744,-0.39239633346691616,-0.011674483992424642,0.02415442487825309,0.628885588573805
17.7,-73.23353038669332,37.38322830049124,270.778374169965,282.9868966033497,0,9.66823268727574,221.6072705583609,11.032305406457509,19.0259458056655,0.005437060880808647,-0.012308363222004721,0.2541231532922038,0.13294651555856804,0.0251907930069276,-0.0587976790178152,1.1255270680196567,1.165259228280939,-54947760266.10332,0.0,2527454618472.2397,0.6079289796601827,0.3756395607985266,0.5765909112606304,-0.3960558004928788,0.0251907930069276,-0.0587976790178152,1.1255270680196567
17.9,-73.23299758300406,37.38198811809935,270.7825354038452,282.9905766105802,0,9.6599671980035,221.83212031178587,11.032304366149038,19.026084513461505,0.0026640184462678558,-0.0062009119594464085,0.02080616940105536,0.1552240863134257,-0.013865212172704006,0.030537256312791673,-1.1665849194557463,1.0383540901149497,11.966090642916361,0.0,-0.3963843117319129,0.6754757057119926,0.3234639330575349,0.49101733285456245,-0.4449782397378865,-0.013865212172704006,0.030537256312791673,-1.1665849194557463
18.01,-73.23247532346365,37.38073853698619,270.80685464642,283.0135466352441,0,9.655308430259389,221.95262027996372,11.032298286338394,19.026895154880666,0.004747814003797466,-0.011359828301428832,0.22108402340718197,0.13347834813648407,0.0189435959775414,-0.04689923947256622,1.8207077636920106,1.125529847591799,3.427286837935765,0.0,0.4079638255174558,0.6047039881509951,0.38085962399590356,0.5719652220594642,-0.4026596804727884,0.0189435959775414,-0.04689923947256622,1.8207077636920106
18.2,-73.23196383958513,37.37947964470634,270.83277208993167,283.03804773250573,0,9.64654597866023,222.15543897824057,11.032291806977517,19.02775906966439,0.0026920204132203146,-0.006625748841315805,0.1364075974298614,0.10785710954992163,-0.010819966266195665,0.024916207684805704,-0.44566539988063997,0.9964172282380321,3.427286837935765,0.0,0.4079638255174558,0.6017640002784956,0.38436195721504507,0.5710404634579961,-0.40504168045809735,-0.010819966266195665,0.024916207684805704,-0.44566539988063997
18.3,-73.23146327264443,37.378211489019925,270.8357792287307,283.0406282101641,0,9.641546575953903,222.25947103435806,11.032291055192816,19.027859307624357,0.005005669407012121,-0.012681556864180085,0.030071387990346494,0.10998977428737411,0.023136489937917736,-0.06055808022864194,-1.0633620943951338,0.95687294259703,3.427286837935765,0.0,0.4079638255174558,0.6949246763512325,0.30476641099766244,0.4479468184594226,-0.4728009906480948,0.023136489937917736,-0.06055808022864194,-1.0633620943951338
18.5,-73.23097332368003,37.37693402789201,270.8610167592846,283.06448214343743,0,9.631160573543445,222.46189603116898,11.032284745810179,19.02870055864282,0.0024497448220017846,-0.006387305639563601,0.12618765276954536,0.09239626119354269,-0.012779622925051727,0.03147125612308253,0.48058132389599606,0.6965989165354755,3.427286837935765,0.0,0.4079638255174558,0.5982510129036467,0.3896001104158615,0.56669669799678,-0.4112934864585819,-0.012779622925051727,0.03147125612308253,0.48058132389599606
18.6,-73.23049432349272,37.375647369491986,270.86396658018765,283.0670109827437,0,9.625582231959704,222.56027997522926,11.032284008354953,19.028798886006257,0.0047900018731183314,-0.012866584000263788,0.029498209030407032,0.07595476004855643,0.023402570511165136,-0.06479278360700094,-0.9668944373913695,0.7692581772226956,3.427286837935765,0.0,0.4079638255174558,0.6924721427184037,0.30674342003598776,0.44150549599043376,-0.48110674785732255,0.023402570511165136,-0.06479278360700094,-0.9668944373913695
18.8,-73.23002593264538,37.37435146219295,270.8906227921698,283.09222589475155,0,9.614058616464888,222.75136889183602,11.032277344301956,19.02968742640566,0.0023419542367264594,-0.006479536495191974,0.13328105991064423,0.11205109554203845,-0.012240238181959403,0.03193523752535918,0.5189142544011879,0.7171248883725024,3.427286837935765,0.0,0.4079638255174558,0.5935254215248643,0.3956028709611924,0.5636364123314983,-0.4165812492000468,-0.012240238181959403,0.03193523752535918,0.5189142544011879
18.9,-73.22956854146273,37.373046444571045,270.89588279810465,283.09696859253245,0,9.607930057710307,222.8440653715732,11.032276029300473,19.029862759936822,0.004573911826497676,-0.013050176219025211,0.05260005934872082,0.17352649283515822,0.022319575897712638,-0.06570639723833377,-0.8068100056192513,1.0612701141024168,3.427286837935765,0.0,0.4079638255174558,0.6459716425492004,0.35322793421861104,0.49809675808710047,-0.4580941858319762,0.022319575897712638,-0.06570639723833377,-0.8068100056192513
19.1,-73.22912186003114,37.371732255404886,270.9385601030191,283.1375178439944,0,9.595425463610212,223.02374177495693,11.032265359974245,19.031285336767304,0.002233407157916613,-0.006570945830794889,0.2133865245721692,0.24210889786492468,-0.011702523342905146,0.03239615194115115,0.8039323261172304,0.9259564413493461,3.427286837935765,0.0,0.4079638255174558,0.5841185636320362,0.40501355676855805,0.5654296882847132,-0.41840027492866316,-0.011702523342905146,0.03239615194115115,0.8039323261172304
19.2,-73.22868598819836,37.37040892367489,270.981912714101,283.17871553644966,0,9.589110074511659,223.11071371301512,11.032254521821475,19.032730423803365,0.004358718327779436,-0.013233317299992392,0.4335261108190117,0.29805131401628204,0.021253111698628677,-0.06662371469197645,2.201395862468472,0.8983575696590602,3.427286837935765,0.0,0.4079638255174558,0.5820249248740308,0.4077639595676284,0.5636203010367274,-0.42107920438128627,0.021253111698628677,-0.06662371469197645,2.201395862468472
19.4,-73.22826124557338,37.36907670856263,271.05698944070764,283.25027389882655,0,9.575799922451477,223.27890573501014,11.032235752639822,19.03523298135692,0.002123713124930767,-0.006661075561282838,0.3753836330332674,0.34858808715063666,-0.011175026014243384,0.03286120869354789,-0.2907123889287227,0.842572462565005,3.427286837935765,0.0,0.4079638255174558,0.5762025465876771,0.4133023814017649,0.5655708418486083,-0.4210717156069285,-0.011175026014243384,0.03286120869354789,-0.2907123889287227
19.5,-73.22784713152609,37.367735329450234,271.0982826943736,283.28950583988905,0,9.568902256951475,223.36011834377368,11.032225429326406,19.036609423145787,0.0041411404728818844,-0.013413791123966044,0.41293253665969,0.3372737728739887,0.02017427347951089,-0.06752715562683109,0.3754890362642207,0.9833772247245631,3.427286837935765,0.0,0.4079638255174558,0.5785726486748769,0.4126319198668046,0.5592371608209689,-0.4268985674247152,0.02017427347951089,-0.06752715562683109,0.3754890362642207
19.7,-73.2274441451872,37.36638508591969,271.1596807888186,283.3479800455965,0,9.554338420270977,223.5167587098137,11.032210079802795,19.038656026293953,0.002014931694418472,-0.0067512176527273725,0.30699047222498277,0.32131176380952775,-0.0106310438923171,0.033312867356193474,-0.529710322173538,0.7405817706377499,3.427286837935765,0.0,0.4079638255174558,0.5734751284970075,0.41762083596278426,0.5604647778953334,-0.4273152783412039,-0.0106310438923171,0.033312867356193474,-0.529710322173538
19.8,-73.22705166544796,37.3650255777522,271.1753096399552,283.3626559558719,0,9.54662900696317,223.59217950532195,11.03220617259001,19.03917698799851,0.003924797392471591,-0.013595081674892902,0.15628851136568533,0.31040168369265764,0.019098656980530915,-0.06843864022165433,-1.507019608592953,0.7501244077655753,3.427286837935765,0.0,0.4079638255174558,0.5900309910633104,0.4054238972374637,0.5390233346968585,-0.44378906902481563,0.019098656980530915,-0.06843864022165433,-1.507019608592953
20.0,-73.22667032096001,37.36365730492756,271.2460833658961,283.4301075659276,0,9.531055687310324,223.73720556134907,11.032188479158526,19.041536112196535,0.001906722439741777,-0.00684136412321126,0.3538686297045514,0.31146655362951725,-0.010090374763649103,0.03376858775840833,0.9879005916943339,0.7718257225506822,3.427286837935765,0.0,0.4079638255174558,0.5687543296291239,0.4233344784915142,0.5574540323392667,-0.43191600303431155,-0.010090374763649103,0.03376858775840833,0.9879005916943339
20.1,-73.22629985013513,37.36227997762346,271.2781414869612,283.46051048336165,0,9.522962541520014,223.80680437628936,11.03218046462826,19.042604716232038,0.0037047082487617375,-0.013773273040982107,0.32058121065119394,0.3338266380066902,0.01797985809019935,-0.06931908917770749,-0.33287419053357,0.6800996199029434,3.427286837935765,0.0,0.4079638255174558,0.573527953061274,0.42052121096907413,0.5485787534142503,-0.43964639141577827,0.01797985809019935,-0.06931908917770749,-0.33287419053357
20.3,-73.22594027114518,37.36089382621485,271.36182832568534,283.54032621189134,0,9.506429765559973,223.94015811381485,11.032159542918578,19.045394277522846,0.001797894949788776,-0.006930757043051041,0.41843419362067075,0.395155266436881,-0.00953406649486484,0.034212579989655455,0.48926491484738577,0.4597751876142026,3.427286837935765,0.0,0.4079638255174558,0.5640262806907528,0.42897832192417534,0.5544573566493588,-0.4363817063840789,-0.00953406649486484,0.034212579989655455,0.48926491484738577
20.4,-73.22559160192174,37.35949870127323,271.40369080682416,283.5801170608195,0,9.497894209975001,224.00390710958922,11.032149077298294,19.046789693560804,0.0034866922344179616,-0.01395124941616673,0.4186248113882219,0.4145383638114587,0.016887972846292214,-0.07020492373115839,0.0019061776755114185,0.27653421782270327,3.427286837935765,0.0,0.4079638255174558,0.5668151088763445,0.4276477955730949,0.5476785455707331,-0.44259033655570995,0.016887972846292214,-0.07020492373115839,0.0019061776755114185
20.51,-73.22525352015604,37.358094773566016,271.4546631573614,283.6286289288837,0,9.488348336249008,224.0717720395872,11.032136334210659,19.048488771912044,0.003073470597185281,-0.01276297915650654,0.4633850048838252,0.40584079181731025,-0.003756560338478814,0.010802456906001442,0.4069108499600193,0.38191241360070327,569889831837.6228,0.0,-1005202864421.1068,0.5632645158777974,0.4313329110470266,0.5475330676566744,-0.44372575406789283,-0.003756560338478814,0.010802456906001442,0.4069108499600193
20.7,-73.22492677329889,37.35668207405583,271.54031340651494,283.7103336176626,0,9.471331260063305,224.1834088667562,11.03211492164837,19.051343780217167,0.0017197203008161154,-0.007435260579912203,0.45079078501873876,0.5301783539111603,-0.007125001559837798,0.028040624087338945,-0.06628536771098219,1.8094037477307414,569889831837.6228,0.0,-1005202864421.1068,0.5581408248222322,0.4363324360666115,0.5487718962543555,-0.4437817377769544,-0.007125001559837798,0.028040624087338945,-0.06628536771098219
20.9,-73.22461077856023,37.35526048389985,271.5957763857436,283.7631492284833,0,9.452386930748661,224.29326263823438,11.032101055903563,19.053192546191454,0.0015799736932820053,-0.007107950779925457,0.27731489614325355,0.5171740919047446,-0.000698733037670553,0.0016365489999337387,-0.8673794443774291,3.168027234413997,569889831837.6228,0.0,-1005202864421.1068,0.5587776655175473,0.43659505115097247,0.5442984717890599,-0.44820916482969625,-0.000698733037670553,0.0016365489999337387,-0.8673794443774291
21.0,-73.22430563290929,37.3538300844491,271.6997844287526,283.8624322026961,0,9.443416577585273,224.3452378494807,11.032075053892811,19.05665948095842,0.0030514565094108114,-0.014303994507471681,1.0400804300900142,0.48914540975593707,0.014714828161287852,-0.07196043727546123,7.6276553394674975,3.117687788073782,569889831837.6228,0.0,-1005202864421.1068,0.5535406075948863,0.4416555033911724,0.5458113171520974,-0.4479098325963238,0.014714828161287852,-0.07196043727546123,7.6276553394674975
21.1,-73.22401160307423,37.35239096724774,271.7351389714996,283.89600690759545,0,9.433587048984613,224.39524216856668,11.032066215257124,19.057837965716654,0.002940298350608786,-0.014391172013574555,0.3535454274702892,0.4362885094556296,-0.0011115815880202386,-0.000871775061028727,-6.865350026197152,3.3783494374625227,569889831837.6228,0.0,-1005202864421.1068,0.5590163513408769,0.4377846939287691,0.5362735902668203,-0.4563506514486001,-0.0011115815880202386,-0.000871775061028727,-6.865350026197152
21.3,-73.22372855554207,37.350943244032436,271.7998076522006,283.95764265919644,0,9.413353756789146,224.4893293283274,11.03205004808695,19.059993588406687,0.0014152376608223044,-0.00723861607653478,0.32334340350502205,0.4895298803480107,-0.007625303448932435,0.035762779685199,-0.15101011982633636,3.5625340697421235,569889831837.6228,0.0,-1005202864421.1068,0.5520551900092452,0.4443230150948651,0.5396060686130603,-0.45457388415616423,-0.007625303448932435,0.035762779685199,-0.15101011982633636
21.4,-73.2234564465585,37.34948675673158,271.81840581133497,283.97518284664926,0,9.402844921386642,224.53340798736608,11.032045398547165,19.0606135270445,0.0027210898356600536,-0.014564873008567103,0.18598159134342437,0.3374184561213842,0.013058521748377771,-0.0732625693203248,-1.3736181216160062,2.3009724545265935,569889831837.6228,0.0,-1005202864421.1068,0.5651658228577254,0.43345122944395825,0.5219306376583985,-0.4693570430286188,0.013058521748377771,-0.0732625693203248,-1.3736181216160062
21.6,-73.22319523212782,37.34802168746464,271.9271190916509,284.0789839841281,0,9.382038112473875,224.61562566862588,11.032018220227087,19.06423730305503,0.0013060721533974897,-0.007325346334709944,0.5435664015797592,0.6095978369716258,-0.007075088411312719,0.03619763336928528,1.7879240511816488,3.798252764836051,-1182661395819.2795,0.0,919531002120.5104,0.5458060775180139,0.4508846911769432,0.5383856865774417,-0.4570990849861866,-0.007075088411312719,0.03619763336928528,1.7879240511816488
21.8,-73.22294502801275,37.34654793854143,271.9830243381707,284.13224007429903,0,9.360038138624455,224.68991180060564,11.032004243915457,19.066100811272356,0.001251020575381294,-0.007368744616051996,0.2795262325989266,0.7744183967947256,-0.0002752578900809792,-0.00021699140671026143,-1.3202008449041678,4.798513744040804,955325382375.8396,0.0,1867684029059.1782,0.5473988405003163,0.4501016124639795,0.5329577224579344,-0.46229764648837024,-0.0002752578900809792,-0.00021699140671026143,-1.3202008449041678
21.9,-73.22270590973429,37.34506577246142,272.1544924981951,284.29612446398744,0,9.350226709833542,224.72407635352403,11.03196137687545,19.071816416606502,0.002391182784578001,-0.014821660800095376,1.7146816002440712,1.0430499108666653,0.011401622091967312,-0.07452916184043538,14.35155367645175,4.905697806724909,1468654229200.1443,0.0,931173998817.6301,0.5406988020388236,0.45644500877743216,0.5359853091096118,-0.46045901864837513,0.011401622091967312,-0.07452916184043538,14.35155367645175
22.01,-73.22247749257161,37.343574891912986,272.2807118213085,284.4167010317371,0,9.338622115317586,224.75936147849427,11.031929822044672,19.07602372737695,0.0020765196606733725,-0.013553459531191001,1.147448391939871,1.293978740083905,-0.002860573853678363,0.01152910244458491,-5.156665530038044,5.0852292792407185,734327114600.0762,0.0,465586999408.1637,0.5397223389368649,0.45782592166247066,0.5333113784027262,-0.4633294680598388,-0.002860573853678363,0.01152910244458491,-5.156665530038044
22.21,-73.22226022156201,37.342075479772696,272.58665375938295,284.7093496898704,0,9.317787581159998,224.81734819391818,11.031853336560154,19.086221791979433,0.001086355048016689,-0.007497060701453533,1.529709690372277,1.681648781854967,-0.004950823063283436,0.030281994148687447,1.9113064921620373,5.263111159898188,0.024988149078862064,0.0,-1.1014969731961763,0.5359730963643812,0.4616144722436651,0.5333254461883669,-0.4639061192059873,-0.004950823063283436,0.030281994148687447,1.9113064921620373
22.31,-73.2220539315007,37.34056761910461,272.7664734665825,284.88126688053813,0,9.307399413942523,224.84335436165958,11.031808381633354,19.092215782219416,0.0020629006131401167,-0.015078606680845362,1.7981970719955982,1.841164781588637,0.009765455651234486,-0.0758154597939199,2.684873816233268,2.6871148844583805,0.10409769606033095,0.0,-1.0987903857269885,0.5350601616897954,0.46290842000697785,0.5305508359763711,-0.4668428306227988,0.009765455651234486,-0.0758154597939199,2.684873816233268
22.5,-73.22185852694072,37.33905124315955,273.18788619936754,285.2845359986363,0,9.288025255769519,224.88727439718247,11.031703028450158,19.106262873312254,0.001028445052497766,-0.007980926026624747,2.217961751500139,2.10989127557819,-0.005444502950749178,0.037356213969581935,2.2092877868659886,1.6960014489093205,0.15920556851350617,0.0,-0.888606470774203,0.5319534334616918,0.4661087724282208,0.5300269709210267,-0.4678029146874308,-0.005444502950749178,0.037356213969581935,2.2092877868659886
22.7,-73.22167394219291,37.337526395374326,273.69034931649816,285.76548378208463,0,9.267613398223489,224.92572553980804,11.031577412670876,19.123011643883274,0.0009229237390684408,-0.007624238926133869,2.512315585653093,2.44145638308063,-0.0005276065671466276,0.0017834355024543976,1.471769170764777,2.8612275752296115,0.06301412509581361,0.0,-0.46868943512090916,0.5299995819767768,0.46827782580840416,0.5283819028276854,-0.4697114920084351,-0.0005276065671466276,0.0017834355024543976,1.471769170764777
22.81,-73.22150047132571,37.33599327937103,273.9643728790383,286.027694694822,0,9.256101927167604,224.94346972623535,11.03150890678024,19.132145762634607,0.0015770078836009319,-0.01393741821176653,2.491123295819568,2.67615637410035,0.00594621949574995,-0.05739253896029722,-0.19265718030477627,2.5399977022204494,142644621754.34378,0.0,420804987044.0102,0.5288419584484957,0.4697262004880635,0.5258726789549821,-0.4723784553598072,0.00594621949574995,-0.05739253896029722,-0.19265718030477627
22.9,-73.22133798816517,37.3344518189563,274.25124855035875,286.3022405794788,0,9.24717363829193,224.9561900051043,11.03143718786241,19.14170828501196,0.0018053684504100932,-0.01712733794142375,3.187507459116058,2.536099624073855,0.0025373396312129083,-0.03544355255174696,7.737601814405459,3.552154432609476,285289243508.6574,0.0,841609974088.2878,0.5269718123826033,0.4717879812044814,0.5241322551940001,-0.4743439562284376,0.0025373396312129083,-0.03544355255174696,7.737601814405459
23.1,-73.2211862862948,37.33290196812055,274.84559879614056,286.87138384325243,0,9.226466544080347,224.97866237724656,11.031288600300964,19.161519959871352,0.0007585093518969081,-0.007749254178754828,2.971751228909014,3.242783646880858,-0.005234295492565852,0.04689041881334395,-1.0787811510352043,12.313923265570518,154875196798.97028,0.0,1669989328990.488,0.5244738733105494,0.4743993841732254,0.5231014991359115,-0.4756439867300502,-0.005234295492565852,0.04689041881334395,-1.0787811510352043
23.3,-73.22104552905549,37.33134389103725,275.1491332843781,287.16196874276955,0,9.20226010777742,224.99313866120556,11.031212716678905,19.171637776145936,0.0007037861965386608,-0.007790385416512918,1.5176724411875906,3.301081216785893,-0.0002736157767912376,-0.0002056561887904504,-7.270393938607144,15.536797810563158,154875196798.97028,0.0,1669989328990.488,0.5233525622219768,0.4757456843773217,0.520662144832203,-0.47820400495058146,-0.0002736157767912376,-0.0002056561887904504,-7.270393938607144
23.4,-73.2209158695455,37.329777612062145,275.7537059853818,287.7410662071257,0,9.19446664599207,224.9973774103485,11.031061573503655,19.191790199512727,0.0012965950999444251,-0.015662789751047845,6.045727010037596,3.112297130866526,0.00592808903405777,-0.07872404334535095,45.28054568850102,15.067502871838215,154875196798.97028,0.0,1669989328990.488,0.520891955328201,0.4783082717953592,0.5195396138256697,-0.4795532897107205,0.00592808903405777,-0.07872404334535095,45.28054568850102
23.6,-73.2207969506203,37.3282030257325,276.31023387178107,288.274218738847,0,9.171923870258162,224.99985518102872,11.030922441532054,19.210341129059366,0.0005945946259799855,-0.007872931648229442,2.7826394319961483,3.0800198506371337,-0.0035100023698221485,0.03894929051409146,-16.315437890207008,15.985045170430274,154875196798.97028,0.0,1669989328990.488,0.5192206834797326,0.48012156945766554,0.5177495569483055,-0.48148578033850675,-0.0035100023698221485,0.03894929051409146,-16.315437890207008
23.7,-73.22068942489261,37.32662023676638,276.53459161852595,288.48904017272696,0,9.159901392705136,224.9980940924433,11.030866352095368,19.21781972061753,0.001075257276852449,-0.015827889661182207,2.2435774674489064,3.3118211272696243,0.004806626508724738,-0.07954958012952935,-5.390619645472533,14.664844312194575,154875196798.97028,0.0,1669989328990.488,0.518490165978455,0.48104840907015123,0.5148368758742523,-0.48446193571296237,0.004806626508724738,-0.07954958012952935,-5.390619645472533
23.8,-73.22059277473224,37.325029530061826,276.81562460289035,288.7582086452114,0,9.148306213142776,224.99433309597197,11.030796093849277,19.22718748676301,0.0009665016037274516,-0.015907067045546116,2.8103298436439728,2.6423734298076225,-0.001087556731249958,-0.0007917738436390735,5.667523761950583,5.6551709295331545,154875196798.97028,0.0,1669989328990.488,0.5163966212521848,0.4832250841839075,0.5134766184611951,-0.4859730546732394,-0.001087556731249958,-0.0007917738436390735,5.667523761950583
24.0,-73.22050726226608,37.32343055069611,277.3509620044733,289.2712175046508,0,9.124435981147034,224.98081213686774,11.03066225949888,19.245032066815778,0.0004275623307847824,-0.007994896828584813,2.676687007914618,2.7626454172671537,-0.0026946963647133558,0.039560851084806656,-0.6682141786467756,3.0776606224338012,154875196798.97028,0.0,1669989328990.488,0.5139440497516253,0.4857379758584591,0.5124090748478003,-0.48719305469951785,-0.0026946963647133558,0.039560851084806656,-0.6682141786467756
24.1,-73.22043264937814,37.32182371392498,277.6208081052008,289.5297279653337,0,9.11231926788499,224.9710527751641,11.0305947979737,19.254026936840027,0.0007461288794274772,-0.016068367711312474,2.698461007275303,2.8607114572725023,0.003185665486426903,-0.08073470882727546,0.21773999360684607,3.299691953397379,154875196798.97028,0.0,1669989328990.488,0.5129868685408957,0.486808710959096,0.5099380384793143,-0.4897192548295588,0.003185665486426903,-0.08073470882727546,0.21773999360684607
24.3,-73.22036839770931,37.32020871518184,278.29760828932797,290.1785297130048,0,9.089057586037809,224.94553845617358,11.030425597927668,19.2765869429776,0.000321258344158083,-0.008074993715681019,3.384000920635811,2.9586458800791493,-0.0021243526763469788,0.03996686997815742,3.427699566802552,2.7323663749032954,154875196798.97028,0.0,1669989328990.488,0.5104497869638653,0.4893756043058426,0.5092322299874138,-0.4905456847643055,-0.0021243526763469788,0.03996686997815742,3.427699566802552
24.4,-73.22031577865752,37.31858590007703,278.57099984343995,290.440516199241,0,9.07657999510314,224.9297846328522,11.03035725003914,19.285699994781332,0.0005261905178599702,-0.016228151048096953,2.7339155411198717,3.0447851604697327,0.002049321737018916,-0.08153157332416108,-6.500853795159532,2.949025526125562,154875196798.97028,0.0,1669989328990.488,0.5095436348410941,0.49036875548993614,0.5065264496636769,-0.49328969543594514,0.002049321737018916,-0.08153157332416108,-6.500853795159532
24.6,-73.2202735233776,37.316955374396976,279.2310072564529,291.07339113478963,0,9.052371332556314,224.8922871593628,11.030192248185886,19.307700241881765,0.0002112763996109349,-0.008152628400281853,3.3000370650648376,3.094117927139439,-0.0015745705912451544,0.040377613239074926,2.8306076197247894,3.0734385241276447,5925237360.80356,0.0,-7547275426.686422,0.5070605828942308,0.4928707501905201,0.5058090349220005,-0.4940902843336137,-0.0015745705912451544,0.040377613239074926,2.8306076197247894
24.71,-73.22024269278133,37.315316764103436,279.57281681961564,291.4010924990665,0,9.03862899354893,224.8682612775204,11.030106795795096,19.319093893987187,0.00028027814793900335,-0.014896457213999667,3.107359665115584,2.748332493820156,0.0006272886211642618,-0.06130753467016226,-1.7516127268114043,3.677949244303163,4682625407.508381,0.0,779913569446.2625,0.5058894830511418,0.49408595355834356,0.503469671407633,-0.49646066451158116,0.0006272886211642618,-0.06130753467016226,-1.7516127268114043
24.9,-73.2202228275373,37.313670465332706,280.13239722650997,291.9377861983283,0,9.014231019021729,224.82107954624416,11.029966900693372,19.337746574217,0.00010455391593436023,-0.008664730372263105,2.945160036285965,3.4135252686751825,-0.000924864378971817,0.03279856232492967,-0.8536822569980063,11.187376208522934,113791045674.78337,0.0,-747974225601.5,0.5037468253151505,0.49624276924988975,0.5022668627731337,-0.4977049814017757,-0.000924864378971817,0.03279856232492967,-0.8536822569980063
25.1,-73.22021400807101,37.31201611439481,280.4634097730513,292.25521467962733,0,8.985495933958338,224.76364584287256,11.029884147556738,19.348780325768374,4.409733143972909e-05,-0.008271754689488257,1.65506273270663,3.3144250479251314,-0.00030228292247315143,0.001964878413874209,-6.450486517896582,13.876578738191174,235100509511.09415,0.0,5208187849.712695,0.5025822070728483,0.4974177790540484,0.5000766180891415,-0.4999100461635567,-0.00030228292247315143,0.001964878413874209,-6.450486517896582
25.2,-73.22021575456485,37.31035432777271,281.0694002574889,292.8365931647093,0,8.975355301623052,224.7319440989134,11.029732649935628,19.368980008582962,-1.7464938366629585e-05,-0.016617866221011822,6.059904844376107,3.3781035155217625,-0.0006156226980636,-0.08346111531523742,44.048421116695714,14.76858207842508,235100509511.09415,0.0,5208187849.712695,0.5004219223251059,0.49957627909831864,0.49905151352970095,-0.5009481289140016,-0.0006156226980636,-0.08346111531523742,44.048421116695714
25.4,-73.220229036958,37.3086848121215,281.6303069804064,293.3747939283686,0,8.94821553070147,224.66257787119167,11.029592423254899,19.38767689934688,-6.641196577561482e-05,-0.008347578256042739,2.8045336145874087,3.0774609952078427,-0.00024473513704492705,0.041351439824845564,-16.27685614894355,16.581548219365338,235100509511.09415,0.0,5208187849.712695,0.4987477506292138,0.5012373102493832,0.4972654110210818,-0.5027314900205653,-0.00024473513704492705,0.041351439824845564,-16.27685614894355
25.5,-73.22025324494653,37.3070073342676,281.9728816447214,293.70346314696604,0,8.935096251230048,224.6249164703611,11.02950677958882,19.39909605482405,-0.00024207988531088287,-0.016774778538959128,3.4257466431500427,3.966366544119707,-0.0017566791953526554,-0.0842720028291627,6.212130285626253,24.606770572153984,235100509511.09415,0.0,5208187849.712695,0.4975934046770831,0.5023599024789857,0.4951625629679107,-0.5048260772169189,-0.0017566791953526554,-0.0842720028291627,6.212130285626253
25.7,-73.2202888679834,37.30532220120794,282.2612687556854,293.98013811483276,0,8.904557128310831,224.54364546385537,11.029434682811079,19.408708958522848,-0.00017811518432608926,-0.008425665298297276,1.4419355548201958,3.3264447683192566,0.0003198235049239692,0.04174556620330941,-9.91905544164927,18.882110921635135,235100509511.09415,0.0,5208187849.712695,0.49613156219443083,0.5037774424450349,0.49324034153295854,-0.5067304282974368,0.0003198235049239692,0.04174556620330941,-9.91905544164927
25.8,-73.2203350352784,37.303629800109135,282.8712275208833,294.5656287113507,0,8.893782090320075,224.50003947021156,11.029282193119778,19.429040917362776,-0.00046167294996734453,-0.01692401098807726,6.099587651978508,3.398482970843248,-0.0028355776564125126,-0.08498345689779861,46.57652097158246,16.303546135772066,235100509511.09415,0.0,5208187849.712695,0.4938195327716236,0.5060676087201156,0.4924507659319471,-0.5074742235725457,-0.0028355776564125126,-0.08498345689779861,46.57652097158246
26.01,-73.22039232579826,37.30192983830668,283.47189205023255,295.14229348662394,0,8.864007371422817,224.40203165560322,11.029132026987442,19.449063068341083,-0.0002728119993445846,-0.008095056202183114,2.860307282615578,3.3472325228620767,0.0008993378601083769,0.042042641837590995,-15.42514461601389,15.071292116612952,235100509511.09415,0.0,5208187849.712695,0.49220280657769794,0.5076304838231916,0.49081098870098955,-0.5090699976042852,0.0008993378601083769,0.042042641837590995,-15.42514461601389
26.1,-73.22046109826658,37.3002219433041,283.7567132559826,295.4156644430022,0,8.851380837055933,224.3573630475999,11.029060821686004,19.45855710853275,-0.0007641385369399573,-0.01897661113972052,3.164680063889596,3.6303030940573024,-0.005459183751059705,-0.12090616597263805,3.3819197919335364,13.399769392770054,4086375468.58497,0.0,690973602474.4431,0.4913056312084941,0.5084270348086702,0.48836603755540575,-0.5114873804708366,-0.005459183751059705,-0.12090616597263805,3.3819197919335364
26.2,-73.22054078116393,37.298506652772204,284.07366215271367,295.7199210734155,0,8.837259906350814,224.30585847190287,11.028981584461821,19.469122071757123,-0.0007968289735060978,-0.017152905318980425,3.169488967310553,3.0417946442124526,-0.00032690436566141183,0.018237058207401347,0.04808903420956959,4.684145272826821,4086375468.58497,0.0,690973602474.4431,0.4895819187309739,0.5100821930126476,0.48693668599889656,-0.5128531612962118,-0.00032690436566141183,0.018237058207401347,0.04808903420956959
26.4,-73.22063175272787,37.29678420454813,284.6451221573353,296.26872361799104,0,8.80809645155065,224.19694427119282,11.028838719460666,19.488170738577843,-0.0004548578196761371,-0.00861224112036044,2.8573000231082903,3.0635597268625934,0.0017098557691498093,0.04270332099310008,-1.560944721011318,1.7871928000580102,4086375468.58497,0.0,690973602474.4431,0.4873698176147378,0.5122412180806124,0.48590099980002016,-0.5137896590734465,0.0017098557691498093,0.04270332099310008,-1.560944721011318
26.5,-73.22073343095296,37.295053886634605,284.9608242890851,296.5718601420042,0,8.793669325470615,224.13953948679304,11.028759793927728,19.498694142969505,-0.0010167822509288126,-0.01730317913526822,3.157021317497834,2.721914023949578,-0.005619244312526675,-0.08690938014907655,2.997212943895395,2.6230249890677904,4086375468.58497,0.0,690973602474.4431,0.48644285746572,0.5130422144278388,0.4837794665443182,-0.5158667079640435,-0.005619244312526675,-0.08690938014907655,2.997212943895395
26.7,-73.22084646359082,37.29331649719907,285.55465056952715,297.14229297440943,0,8.764157845355884,224.018847306362,11.028611337357617,19.518488352317572,-0.0005651631892789076,-0.008686947177665192,2.969131402210234,3.2596561029375195,0.002258095308249533,0.043081159788015286,-0.939449576438004,11.416230788301956,4086375468.58497,0.0,690973602474.4431,0.4842055183234813,0.5152182482036346,0.48278793844631923,-0.516731051160872,0.002258095308249533,0.043081159788015286,-0.939449576438004
26.9,-73.22097070815016,37.291571304572855,285.84594702254924,297.42205242891094,0,8.731257634545745,223.89032966901024,11.028538513244362,19.528198234084975,-0.0006212227967239436,-0.008725963131084345,1.4564822651104288,3.2702111703577446,-0.00028029803722518106,-0.0001950797670957634,-7.563245685499053,17.000294313400882,4086375468.58497,0.0,690973602474.4431,0.4833650101656539,0.5158924397852257,0.4804705006234834,-0.5190003425342067,-0.00028029803722518106,-0.0001950797670957634,-7.563245685499053
27.0,-73.22110620189693,37.28981917725032,286.4317689743622,297.9849313060711,0,8.719077450211282,223.82314338951878,11.02839205775641,19.54772563247874,-0.0013549374676813193,-0.0175212732253269,5.858219518129802,3.2226088225850402,-0.0073371467095736526,-0.0879531009424243,44.01737253019311,16.413186091629466,4086375468.58497,0.0,690973602474.4431,0.4810581340332875,0.5181384255822811,0.47961721232402266,-0.5196950771924435,-0.0073371467095736526,-0.0879531009424243,44.01737253019311
27.1,-73.22125263185421,37.288059283888,286.7227724534966,298.26447902081156,0,8.703863605886283,223.75400942197925,11.028319306886626,19.557425748449887,-0.0014642995728308753,-0.01759893362319051,2.910034791343564,3.210830164432493,-0.0010936210514955439,-0.0007766039786360924,-29.481847267861962,16.25027632019826,4086375468.58497,0.0,690973602474.4431,0.48027281689940937,0.5187354153356544,0.47736709182964965,-0.5218929486610787,-0.0010936210514955439,-0.0007766039786360924,-29.481847267861962
27.3,-73.22141042480244,37.28629250330378,287.3065811908001,298.825558058184,0,8.673204767092841,223.60991079962054,11.0281733547023,19.57688603969334,-0.0007889647411474271,-0.00883390292113265,2.9190436865175786,3.495787894129149,0.0033766741584172525,0.043825153510289455,0.045044475870073146,14.76787096236427,4086375468.58497,0.0,690973602474.4431,0.477967342724596,0.5209722439353407,0.476517318768622,-0.5225575425264933,0.0033766741584172525,0.043825153510289455,0.045044475870073146
27.4,-73.22157900727942,37.28451802447599,287.5976008194355,299.10519038246747,0,8.65774556599126,223.5349525491609,11.02810059979514,19.586586693981186,-0.0016858247697371458,-0.017744788277838475,2.9101962863541697,2.9034161325673074,-0.008968600285897377,-0.08910885356706015,-0.08847400163409092,5.9794687334072805,4086375468.58497,0.0,690973602474.4431,0.47722307286764193,0.5215059952475143,0.4743090761276022,-0.5247099541143136,-0.008968600285897377,-0.08910885356706015,-0.08847400163409092
27.6,-73.22175923558032,37.282736646542624,288.1738574748772,299.65914070717014,0,8.626536653598883,223.37923482686017,11.027956535631281,19.605795249162572,-0.0009011415045279008,-0.00890688966684637,2.88128327720837,2.892565547069173,0.003923416326046169,0.0441894930549599,-0.14456504572899725,0.16629510908607412,4555323336.5875,0.0,342026643174.81335,0.47490384235639005,0.52374608616351,0.47343057345963646,-0.5253759319356207,0.003923416326046169,0.0441894930549599,-0.14456504572899725
27.8,-73.22195067575792,37.2809477688004,288.75313209490827,300.21607955258276,0,8.595060011551368,223.2158053548394,11.027811716976272,19.625104403163608,-0.0009572008880098826,-0.008944388711107396,2.8963731001553685,2.8890740222808167,-0.00028029691740990973,-0.00018749522130513568,0.07544911473499365,0.2452370455616119,11731872493.1875,0.0,689499510637.9382,0.4733830252359657,0.5251126268903127,0.47191509072532345,-0.5267460371417236,-0.00028029691740990973,-0.00018749522130513568,0.07544911473499365
27.9,-73.22215250362258,37.27915156070392,289.0387099196172,300.490589853237,0,8.579174033712953,223.13120773855115,11.027740322520096,19.63462366398724,-0.002018278646573933,-0.017962080964793285,2.8557782470892943,2.8772052299408615,-0.010610777585640729,-0.09017692253686081,-0.4059485306607511,0.2715091174910181,11731872493.1875,0.0,689499510637.9382,0.47274777722292394,0.525505640951929,0.4697650774741726,-0.528842256674116,-0.010610777585640729,-0.09017692253686081,-0.4059485306607511
28.0,-73.2223652447423,37.27734823186483,289.3288641913941,300.7695249148695,0,8.56326494222575,223.0446931867965,11.02766778395215,19.64429547304647,-0.0021274111972502093,-0.018033288390952605,2.9015427177688067,2.5826178573957295,-0.0010913255067627478,-0.0007120742615931884,0.45764470679511743,1.6838271443190482,11731872493.1875,0.0,689499510637.9382,0.4712658397081937,0.5268224705625292,0.4683258073399847,-0.5301297303621781,-0.0010913255067627478,-0.0007120742615931884,0.45764470679511743
28.2,-73.22258993444296,37.275537722050885,289.89904265492737,301.31788583059426,0,8.531146354983381,222.8659287422218,11.027525239336267,19.663301421830912,-0.0011234485032929381,-0.009052549069714677,2.850892317666488,3.1085387611313093,0.005019813469786374,0.0449036966061898,-0.25325200051159324,9.904018743575707,11731872493.1875,0.0,689499510637.9382,0.46894759939520886,0.529047366019109,0.46744950926513174,-0.5307428660071665,0.005019813469786374,0.0449036966061898,-0.25325200051159324
28.4,-73.22282479780834,37.27372015118513,290.1807087571993,301.58871998155024,0,8.495889790185657,222.67954380099016,11.0274548228107,19.672690291906644,-0.0011743168268907353,-0.009087854328768718,1.4083305113595708,3.0464978633262,-0.0002543416179889866,-0.00017652629527020798,-7.212809031534613,12.801183752363244,11731872493.1875,0.0,689499510637.9382,0.4683801414481143,0.5293421708780981,0.46534250414989203,-0.5327975816936622,-0.0002543416179889866,-0.00017652629527020798,-7.212809031534613
28.5,-73.22307157968011,37.271895219345,290.73330484748254,302.12028553598316,0,8.482289073159915,222.58350394593364,11.027316673788128,19.69111016158275,-0.0024678187176618497,-0.018249318401330778,5.525960902832516,2.9352421240817463,-0.012935018907710961,-0.0916146407256193,41.17630391472886,13.110822514632734,11731872493.1875,0.0,689499510637.9382,0.4660680367882286,0.5315611847648084,0.4645174398356141,-0.5333355791847815,-0.012935018907710961,-0.0916146407256193,41.17630391472886
28.7,-73.22332921465822,37.27006302676142,291.2424276773347,302.6100877675504,0,8.448956378632584,222.3857508088605,11.027189393080667,19.708080922577825,-0.0012881748905613267,-0.00916096291788907,2.5456141492608797,2.8081876126432186,0.005898219135502636,0.0454417774172087,-14.901733767858234,13.318755437395348,11731872493.1875,0.0,689499510637.9382,0.4647263453591003,0.5327066801825237,0.4630405389882767,-0.5346461222823324,0.005898219135502636,0.0454417774172087,-14.901733767858234
28.8,-73.22359691710078,37.26822429381793,291.47695240059505,302.83564761802916,0,8.432008223328172,222.28404631583962,11.027130761899851,19.715898413353166,-0.0026770244255657945,-0.01838732943490103,2.3452472326033225,2.9331790563220865,-0.01388849535004448,-0.09226366517011828,-2.003669166575544,12.058689841810127,11731872493.1875,0.0,689499510637.9382,0.4644107633223973,0.5326837024673953,0.46074585457300854,-0.5369208261277671,-0.01388849535004448,-0.09226366517011828,-2.003669166575544
28.9,-73.22387551112428,37.26637863104981,291.69850797337904,303.0487394381255,0,8.414878653080097,222.1804625388317,11.027075373006655,19.723283599112634,-0.002785940234986188,-0.018456627681189667,2.215555727839889,2.021515255231771,-0.0010891580942039567,-0.0006929824628863915,-1.2969150476343627,4.889077427688932,11731872493.1875,0.0,689499510637.9382,0.46311787364446466,0.533753814740861,0.45923261428565043,-0.5382695480305154,-0.0010891580942039567,-0.0006929824628863915,-1.2969150476343627
29.1,-73.22416557060369,37.26452512914316,292.1051671540734,303.4400302114421,0,8.380107565583263,221.96767563099903,11.02697370821148,19.736838905135777,-0.0014502973970564675,-0.009267509533259367,2.0332959034717812,2.2349165457314846,0.006678214189648507,0.04594559073965084,-0.9112991218405256,7.1986729229854145,378066003086.8875,0.0,1686326692182.3757,0.4607844155012902,0.5360234035503778,0.45866355959441324,-0.5385019706348206,0.006678214189648507,0.04594559073965084,-0.9112991218405256
29.3,-73.22446567917264,37.26266550893402,292.2986925033311,303.6261751792621,0,8.34302152353511,221.74742791358565,11.026925326874167,19.74328975011104,-0.0015005428447523227,-0.009298101045693874,0.9676267462884914,2.131208605059917,-0.0002512272384792768,-0.00015295756217253173,-5.328345785916468,8.583361126597975,378066003086.8875,0.0,1686326692182.3757,0.46066855398580964,0.535732346731438,0.45620645448111874,-0.5409722792565403,-0.0002512272384792768,-0.00015295756217253173,-5.328345785916468
29.4,-73.22477711022351,37.26079815140745,292.659951284066,303.973818193794,0,8.3270594822842,221.63451843546756,11.026835012178983,19.755331709468866,-0.003114310508749507,-0.018673575265708963,3.612587807348936,2.100765480467646,-0.016137676639972186,-0.0937547422001529,26.44961061060501,8.797513982595088,378066003086.8875,0.0,1686326692182.3757,0.4582232128974899,0.538145386601182,0.45582822093975395,-0.5409728856760426,-0.016137676639972186,-0.0937547422001529,26.44961061060501
29.6,-73.22509875690764,37.25892371769666,293.0253025614475,304.3254350621845,0,8.291445561402941,221.40315333108774,11.026743674359638,19.767510085381584,-0.001608233420640181,-0.009372168553944826,1.8267563869076493,1.8598514379865165,0.007530385440546522,0.04650703355882003,-8.929157102206307,9.849692890015529,378066003086.8875,0.0,1686326692182.3757,0.45694645124708533,0.5392214372586255,0.45457401468305647,-0.5420356514735593,0.007530385440546522,0.04650703355882003,-8.929157102206307
29.7,-73.22543103213538,37.25704376908206,293.23163560289436,304.52396158365264,0,8.273820013931235,221.28470798768143,11.026692091099276,19.77438785342981,-0.003322752277341649,-0.01879948614600875,2.06333041446844,2.3852122148117623,-0.017145188567015048,-0.09427317592064126,2.365740275607959,14.3155235042437,378066003086.8875,0.0,1686326692182.3757,0.4565064265828477,0.5392557143308955,0.4523021614192922,-0.5442682351795587,-0.017145188567015048,-0.09427317592064126,2.365740275607959
29.9,-73.22577409857631,37.25515732699041,293.39737397806874,304.6834091266232,0,8.235999163953377,221.04231803929207,11.026650656505483,19.779912465935624,-0.0017153322046681357,-0.009432210458264511,0.8286918758719283,2.0541120775060753,0.008037100363367597,0.04683637843872136,-6.173192692982581,10.662907280909252,378066003086.8875,0.0,1686326692182.3757,0.4556791289865067,0.5397421947978939,0.45043799030592185,-0.546022445921423,0.008037100363367597,0.04683637843872136,-6.173192692982581
30.0,-73.22612729865945,37.25326288299381,293.7568164588709,305.0294060097152,0,8.219808180708444,220.91838420715567,11.026560795885281,19.791893881962363,-0.003532000831398768,-0.01894443996597745,3.5944248080215346,2.021797741082307,-0.018166686267306064,-0.09512229507712805,27.65732932149567,9.461409547764937,378066003086.8875,0.0,1686326692182.3757,0.4530719789858481,0.5424338414621126,0.450649424202121,-0.5453498014676449,-0.018166686267306064,-0.09512229507712805,27.65732932149567
30.2,-73.22649080457333,37.2513619988089,294.1482390194317,305.40623674796046,0,8.184068900255577,220.6650663675043,11.02646294024514,19.804941300647723,-0.0018175295694078451,-0.009504420924528778,1.9571128028039266,1.935991180902321,0.008572356309954645,0.04720009520724353,-8.186560026088069,9.049527365195711,378066003086.8875,0.0,1686326692182.3757,0.45171594296180967,0.5435884224737679,0.44948802429792417,-0.5462827563078961,0.008572356309954645,0.04720009520724353,-8.186560026088069
30.3,-73.22686560826622,37.24945612629586,294.31474863610697,305.5664691900123,0,8.165869863734368,220.53569361851822,11.026421312840974,19.810491621203564,-0.0037480369289255044,-0.01905872513042057,1.6650961667528226,2.0434054150001355,-0.019305073595176317,-0.09554304205891655,-2.9201663605109993,8.083513824280896,378066003086.8875,0.0,1686326692182.3757,0.45178875115245903,0.5429194500934809,0.44654925917466465,-0.5492896814731295,-0.019305073595176317,-0.09554304205891655,-2.9201663605109993
30.4,-73.22725115144628,37.247543897457504,294.4781755874701,305.7237408755082,0,8.147617728507905,220.40451928982168,11.026380456103132,19.815939186249004,-0.0038554318005879764,-0.01912228838357107,1.6342695136313872,1.4443168905826447,-0.0010739487166247434,-0.0006356325315050104,-0.30826653121436054,4.086286518717946,378066003086.8875,0.0,1686326692182.3757,0.45053684788235726,0.5439090683049179,0.44519121220470004,-0.5504400591268913,-0.0010739487166247434,-0.0006356325315050104,-0.30826653121436054
30.6,-73.22764646558178,37.24562401443835,294.7513322543057,305.986719615086,0,8.110517626063595,220.13678929290208,11.026312166936423,19.825044408476856,-0.001976570677513195,-0.009599415095777749,1.3657833341778576,1.1652620160775102,0.009394305615373775,0.047614366438965924,-1.3424308972676289,2.4854488533602708,378066003086.8875,0.0,1686326692182.3757,0.44834531701335323,0.546134499948591,0.44513955589391013,-0.5500675962612874,0.009394305615373775,0.047614366438965924,-1.3424308972676289
30.7,-73.22805349190125,37.24369908952372,294.81120331960204,306.0442558566252,0,8.091175055477708,220.00024552374597,11.026297199170099,19.827040110653403,-0.004070263194648847,-0.01924924914625633,0.5987106529636449,0.8434004600560152,-0.020936925171356965,-0.09649834050478787,-7.6707268121422905,2.407859534268622,378066003086.8875,0.0,1686326692182.3757,0.452540998194659,0.5401937507335878,0.4379138500313774,-0.5582372404023727,-0.020936925171356965,-0.09649834050478787,-7.6707268121422905
30.91,-73.22847032139367,37.2417676851388,294.92917786854395,306.15776665657256,0,8.050433925457158,219.70772426727808,11.026267705532863,19.83097259561813,-0.0019849023448700927,-0.009197163737744431,0.561783566390007,0.5641176425202656,0.009930289760851169,0.04786707337386599,-0.1758432693982748,2.710998702723909,378066003086.8875,0.0,1686326692182.3757,0.44784300942311767,0.5455916778443828,0.44040521182985715,-0.5548059204540767,0.009930289760851169,0.04786707337386599,-0.1758432693982748
31.11,-73.22889897480874,37.23983070384764,294.9401807885052,306.16823296918005,0,8.010577571516478,219.42189622015724,11.026264954802873,19.83133935961684,-0.0021432670753540684,-0.009684906455795818,0.055014599806213677,0.3412372603941347,-0.000791823652419881,-0.0024387135902569426,-2.5338448329189758,2.472324660464044,6.908743664212447,0.0,0.6233077696174414,0.4803718771699484,0.5000728822224012,0.4015057100251084,-0.5983002063406246,-0.000791823652419881,-0.0024387135902569426,-2.5338448329189758
31.21,-73.22933678265696,37.237887598352316,294.9638944690409,306.19094545521557,0,7.990821341109457,219.27635088452203,11.02625902638274,19.832129815634694,-0.004378078482147822,-0.019431054953215898,0.23713680535706436,0.2810367884243689,-0.02234811406793722,-0.09746148497419942,1.8212220555084808,0.987022013609422,6.288357101933534,0.0,0.614347232315158,0.45975508915069957,0.528608102328093,0.4227571756004299,-0.5748696396849221,-0.02234811406793722,-0.09746148497419942,1.8212220555084808
31.3,-73.22978689520998,37.23593892149191,294.9864334018795,306.21252869084964,0,7.973049121891111,219.1438674006834,11.02625339164953,19.832881113395985,-0.005001250589171183,-0.021651965115647005,0.25043258709539906,0.2325593455174904,-0.006924134522481796,-0.024676779582567886,0.14773090820371917,0.9971034492212671,6.288357101933534,0.0,0.614347232315158,0.4591941986724044,0.5283886307238276,0.42025200213572644,-0.5773511908087834,-0.006924134522481796,-0.024676779582567886,0.14773090820371917
31.5,-73.23024537250068,37.23398439624161,295.04600588091466,306.2697895934513,0,7.933645564074849,218.8444214991993,11.026238498529771,19.834866862697154,-0.002292386453461867,-0.009772626251489704,0.2978623951759129,0.39833074837952276,0.013544320678546627,0.059396694320786717,0.23714904040257,1.0562859397760604,6.288357101933534,0.0,0.614347232315158,0.4465466294521144,0.5447478573211588,0.4317516089802096,-0.5634149694603106,0.013544320678546627,0.059396694320786717,0.23714904040257
31.6,-73.23071672432351,37.232023935711744,295.077889702197,306.30037947970203,0,7.913966283155863,218.6921055835275,11.02623052757445,19.8359296567399,-0.004713518228385216,-0.019604605298652877,0.3188382128234889,0.3728920827557112,-0.024211317749233147,-0.09831979047163034,0.20975817647575704,1.6865057576087807,6.288357101933534,0.0,0.614347232315158,0.4512738553253401,0.5375638897873325,0.4236368518102801,-0.5726332069351125,-0.024211317749233147,-0.09831979047163034,0.20975817647575704
31.8,-73.23119704023458,37.23005773314683,295.2548298639261,306.47071634453926,0,7.87575248962879,218.38232166987942,11.026186292534017,19.841827662130868,-0.0024015795553111816,-0.009831012824577136,0.8847008086453942,0.35686200634318027,0.011559693365370213,0.04886796237037888,2.829312979109537,2.217608200963738,6.288357101933534,0.0,0.614347232315158,0.43915144050166627,0.5529817516284218,0.43415671486182156,-0.5593434916146472,0.011559693365370213,0.04886796237037888,2.829312979109537
32.0,-73.23168781955209,37.228086711924625,295.23276746644075,306.44933925042875,0,7.835579387809247,218.06571433346755,11.02619180813339,19.84109224888136,-0.0024538965875820027,-0.00985510611101862,-0.11031198742671261,0.3096424970815986,-0.0002615851613541063,-0.00012046643220742269,-4.975063980360552,2.625619484358608,6.288357101933534,0.0,0.614347232315158,0.4549470569107986,-0.5309872758792833,-0.41498579826997783,-0.5821189530471668,-0.0002615851613541063,-0.00012046643220742269,-4.975063980360552
32.1,-73.23219181135634,37.226108695555176,295.24977201221134,306.4656015923669,0,7.815789707880017,217.90486942364905,11.026187556996947,19.84165906707371,-0.005039918042513064,-0.019780163694491367,0.17004545770589388,0.25688602507352987,-0.02586021454931025,-0.09925057583472606,2.8035744513260252,2.6873921433517216,6.288357101933534,0.0,0.614347232315158,0.4590339088075673,0.5239982574436656,0.4072271638120655,-0.5906604217436862,-0.02586021454931025,-0.09925057583472606,2.8035744513260252
32.2,-73.23270610449012,37.22412491767982,295.24392750582984,306.4598529144419,0,7.795785208116568,217.74233985920674,11.026189018123542,19.841464250194328,-0.005142931337758155,-0.019837778753526155,-0.058445063814928366,0.1369255760298641,-0.0010301329524508894,-0.000576150590347871,-2.28490521520819,2.478888429283827,6.288357101933534,0.0,0.614347232315158,0.4992249438761143,-0.4574439452981278,-0.35397438885943044,-0.6451524039741049,-0.0010301329524508894,-0.000576150590347871,-2.28490521520819
32.41,-73.23323006755892,37.22213622207031,295.25544075400126,306.4708284745906,0,7.754066994823455,217.39557644805382,11.0261861398115,19.841848025133373,-0.0024950622323856985,-0.009469979092915007,0.05482499129243642,0.2501048460453574,0.012608900501773976,0.04937047457434027,0.5393812147969913,2.267340351267722,6.288357101933534,0.0,0.614347232315158,0.46804533803321907,0.5084617292120663,0.39184877352142883,-0.6073341503338973,0.012608900501773976,0.04937047457434027,0.5393812147969913
32.6,-73.23376648893114,37.22014099262774,295.20133846553375,306.4185922582195,0,7.715751672871702,217.07552064172225,11.026199665383617,19.84004461551779,-0.002823270380091679,-0.010501207592477047,-0.2847488866710687,0.22009666170175884,-0.0017274113037156439,-0.005427518418747439,-1.7872309366499812,3.050806146576341,6.288357101933534,0.0,0.614347232315158,0.43835502029852774,-0.5503553517052509,-0.4219344605728578,-0.5717737087428545,-0.0017274113037156439,-0.005427518418747439,-1.7872309366499812
32.7,-73.2343124667384,37.21814079338167,295.1337027513293,306.353320573324,0,7.6952274989805325,216.90467764296184,11.026216574312167,19.837790091710975,-0.005459778072633903,-0.020001992460691724,-0.6763571420446982,0.24361203839407874,-0.02636507692542187,-0.09500784868214542,-3.91608255373624,2.7692599617515543,6.288357101933534,0.0,0.614347232315158,0.4356731030150114,-0.5533124591157076,-0.42252218230633465,-0.5705342017405197,-0.02636507692542187,-0.09500784868214542,-3.91608255373624
32.8,-73.23487108887578,37.21613413848908,295.13329482437376,306.35281734873763,0,7.675401213701284,216.732194442381,11.026216676293906,19.837776494145793,-0.0055862213737615084,-0.020066548925897796,-0.004079269555177466,0.265588072565119,-0.0012644330112761219,-0.0006455646520607558,6.72277872489559,3.0053500202960715,6.288357101933534,0.0,0.614347232315158,0.6020764287518141,-0.07687922910312725,-0.058400636644952514,-0.7925799162945242,-0.0012644330112761219,-0.0006455646520607558,6.72277872489559
33.0,-73.23544005300211,37.21412388223347,295.0974534997271,306.3181805869555,0,7.635483146710776,216.38233817188154,11.026225636625067,19.836581783324235,-0.0028448206316511056,-0.010051281278044968,-0.17920662323319647,0.2384265306508378,0.01370700371055182,0.05007633823926343,-0.8756367683900826,2.688914894716994,6.288357101933534,0.0,0.614347232315158,0.4387515006259855,-0.5473329032242517,-0.4139210572668155,-0.5801665037708393,0.01370700371055182,0.05007633823926343,-0.8756367683900826
33.2,-73.23602076654015,37.212106739023824,295.1305014945133,306.3499119276461,0,7.596380165263412,216.02601402597276,11.026217374626372,19.837683383150445,-0.0029035676902111206,-0.010085716048244675,0.1652399739307929,0.1605520974105184,-0.00029373529280007064,-0.00017217385099853598,1.7222329858199226,2.045294325243705,6.288357101933534,0.0,0.614347232315158,0.4385199012455627,0.5467467907856098,0.4115506171544001,-0.5825756023874075,-0.00029373529280007064,-0.00017217385099853598,1.7222329858199226
33.3,-73.23661215667704,37.210086893393644,295.14526712790916,306.36403286744724,0,7.576863344193286,215.8454462506239,11.026213683218023,19.838175570930304,-0.005913901368899469,-0.020198456301799877,0.14765633395882943,0.2210408311175298,-0.030103336786885197,-0.10112740253555776,-0.17583639971964465,0.7680541465383652,6.288357101933534,0.0,0.614347232315158,0.4528979083895371,0.524459691567976,0.39292096519375036,-0.6045152037856596,-0.030103336786885197,-0.10112740253555776,-0.17583639971964465
33.5,-73.2372144803644,37.20805922,295.20268872113536,306.41924985866905,0,7.538222943864554,215.4795394208042,11.026199327819716,19.840089624037844,-0.003011618436801157,-0.010138366968206325,0.28710796613097095,0.3413570045241029,0.014511414660491355,0.05030044666796704,0.6972581608606977,3.0455870885068173,6.288357101933534,0.0,0.614347232315158,0.430573983766279,0.5562057626165386,0.41500494002272587,-0.577072000613896,0.014511414660491355,0.05030044666796704,0.6972581608606977
33.61,-73.2378275843187,37.2060291936225,295.23822909744433,306.453389470931,0,7.517079859648817,215.27559793865814,11.026190442725639,19.841274303248145,-0.005573672311759959,-0.018454785250037888,0.32309433008157035,0.45976880035281803,-0.023291398863261956,-0.0756038025621055,0.32714876318726893,4.2394844565751075,6.288357101933534,0.0,0.614347232315158,0.43394164247537803,0.5505311138782399,0.4088213775489444,-0.5843588151442051,-0.023291398863261956,-0.0756038025621055,0.32714876318726893
33.7,-73.23845152502165,37.20399054916234,295.1679631821102,306.3855972196485,0,7.498826588273335,215.10732521075317,11.026208009204472,19.83893210607034,-0.006932674477234529,-0.02265160511285472,-0.7807323926012898,0.5404111634548544,-0.015100024060827978,-0.04663133180907415,-12.264741363142427,5.508284256890725,-174967170890555.0,0.0,-198819934891.3106,0.42684756763087045,-0.5597886592907977,-0.4140927189829379,-0.5770312218782779,-0.015100024060827978,-0.04663133180907415,-12.264741363142427
33.9,-73.23908642872027,37.201950391641276,295.31947450241734,306.53146806525365,0,7.4614737364549,214.72886979090566,11.026170131374395,19.84398248341391,-0.003174518493125401,-0.01020078760532805,0.7575566015356278,0.7257486767251676,0.01879077992054604,0.06225408753763468,7.691444970684752,6.691702500337527,-87577071373250.45,0.0,-455239497436.4762,0.4221267928834562,0.5654325281232567,0.41621578315257646,-0.5734626829400127,0.01879077992054604,0.06225408753763468,7.691444970684752
34.1,-73.23973210142734,37.19990116620069,295.20902328764936,306.4249637929518,0,7.421697941132948,214.3442404412284,11.026197744178088,19.840300776254978,-0.0032283635353280256,-0.010246127202932907,-0.5522560738398773,0.7850864275574636,-0.0002692252110131186,-0.0002266979880242873,-6.549063376877432,8.458481035652351,-87577071373250.45,0.0,-455239497436.4762,0.4222223574076535,-0.5646290351644532,-0.4140890050171655,-0.5757192279907596,-0.0002692252110131186,-0.0002266979880242873,-6.549063376877432
34.2,-73.24038973892179,37.197850188100524,295.08764336907757,306.3079365880705,0,7.401227093044527,214.14963186814148,11.02622808915773,19.836254778969252,-0.00657637494455789,-0.020509781001649394,-1.2137991857178858,1.1381154947279004,-0.03348011409229817,-0.1026365379871634,-6.615431118779991,12.338366492558148,-87577071373250.45,0.0,-455239497436.4762,0.42041381626725954,-0.5661657398404163,-0.4130199401359723,-0.576301229542876,-0.03348011409229817,-0.1026365379871634,-6.615431118779991
34.4,-73.24105807674883,37.195794552718326,295.2116960799496,306.4273571713372,0,7.364120335968361,213.75587017127594,11.026197075980011,19.840389869331652,-0.003341689135183472,-0.010278176910994082,0.6202635543601919,1.0638976061964427,0.016173429046872433,0.05115802045327765,9.170313700390585,16.13125578421699,-87577071373250.45,0.0,-455239497436.4762,0.4191783002038479,0.567094521194576,0.4119379679108623,-0.5770619267139158,0.016173429046872433,0.05115802045327765,9.170313700390585
34.5,-73.24173685022039,37.193729615548236,294.95708165547705,306.18198111297664,0,7.342487791137911,213.5567345479524,11.02626072958613,19.831902721849236,-0.006787734715629671,-0.020649371700897905,-2.5461442447254607,1.198055373147125,-0.0344604558044615,-0.10371194789903676,-31.66407799085608,16.51528529947954,-87577071373250.45,0.0,-455239497436.4762,0.41641189412723895,-0.5703229253074538,-0.41287216949685646,-0.5752125406778547,-0.0344604558044615,-0.10371194789903676,-31.66407799085608
34.61,-73.24242573441536,37.19165979219999,294.9995453328247,306.22280162021474,0,7.321987578074132,213.33596313235807,11.026250113666794,19.833318177760823,-0.006262583590651906,-0.018816575893122463,0.3860334304332292,1.000152137102459,0.004774101136161523,0.016661780070685923,26.656160683260957,18.08507898987418,-87577071373250.45,0.0,-455239497436.4762,0.42406110977178163,0.5586335159196841,0.4028353702269074,-0.5880683927609843,0.004774101136161523,0.016661780070685923,26.656160683260957
34.8,-73.24312913418004,37.189587808397924,294.76715725109733,305.9988535936333,0,7.283701196069506,212.95041498136132,11.026308210687226,19.82557190836991,-0.0037021040246020065,-0.010905177905622178,-1.2230951669862193,0.9702473626229879,0.013476208242368054,0.04163893677631779,-8.469097881155093,16.94517133949192,-1760668161821.3171,0.0,111983704859.97025,0.4138013638585007,-0.5720621313938615,-0.4099234276482758,-0.5774739237048249,0.013476208242368054,0.04163893677631779,-8.469097881155093
34.9,-73.24383987412833,37.187507489979915,294.78949675132793,306.0202904836956,0,7.265092411759639,212.74536750193124,11.026302625812168,19.8263165583776,-0.007107399482890641,-0.020803184180095673,0.2233950023060029,0.4867779360113267,-0.03405295458288586,-0.09898006274473355,14.464901692922018,10.954608876163535,-3521336323803.458,0.0,223967409720.1845,0.4309787174940499,0.5462839189105446,0.39064885479081707,-0.6026812567664143,-0.03405295458288586,-0.09898006274473355,14.464901692922018
35.1,-73.24456418864217,37.18542609289644,294.69535577646496,305.9295258929933,0,7.226693358820713,212.33091568811068,11.026326161055884,19.823178525882167,-0.0036215725692300732,-0.010406985417361478,-0.4707048743148267,0.4317217807726192,0.01742913456830259,0.05198099381367024,-3.470499383104099,6.098763153821526,-3521336323803.458,0.0,223967409720.1845,0.4144421488875699,-0.5695540286466315,-0.40485367035538666,-0.583043239629461,0.01742913456830259,0.05198099381367024,-3.470499383104099
35.3,-73.24529985187186,37.183338873209514,294.6696729713604,305.9047087071381,0,7.189266982055608,211.91071624109645,11.02633258175716,19.822322432378677,-0.0036783161484522328,-0.010436098434638774,-0.12841402552283218,0.21824536843620068,-0.0002837178961108038,-0.0001455650863864864,1.7114542439600093,4.93127571268222,-3521336323803.458,0.0,223967409720.1845,0.42570399247359936,-0.5518214311676206,-0.390598876127628,-0.6014164421297362,-0.0002837178961108038,-0.0001455650863864864,1.7114542439600093
35.4,-73.2460429077364,37.181243107091696,294.6805746827561,305.9151332248701,0,7.170903910944101,211.69848445965792,11.02632985632931,19.822685822758537,-0.00743055864532483,-0.020957661178186683,0.10901711395717784,0.18847927594951217,-0.037522424968725446,-0.10521562743547759,2.3743113948000665,2.118345057317324,-3521336323803.458,0.0,223967409720.1845,0.4469057716993338,0.5166071781911327,0.3649530906015882,-0.6326148088083041,-0.037522424968725446,-0.10521562743547759,2.3743113948000665
35.5,-73.24679684992384,37.17914254082506,294.66515865927164,305.9002085918523,0,7.152355252020797,211.48484386190574,11.026333710335182,19.822171955309056,-0.00753942187444057,-0.021005662666339887,-0.15416023484476463,0.10156910347222045,-0.001088632291157377,-0.0004800148815320358,-2.631773488019387,1.4644709585438356,-3521336323803.458,0.0,223967409720.1845,0.43504368121119963,-0.535290655191563,-0.3765977990818239,-0.6183647852437277,-0.001088632291157377,-0.0004800148815320358,-2.631773488019387
35.7,-73.24756508189164,37.17703934080018,294.6501965513905,305.8857243683438,0,7.115656751971413,211.05337426006213,11.026337450862153,19.821673218379683,-0.003841159838984199,-0.010516000124418518,-0.07481053940580189,0.1720201736986454,0.01849131017728159,0.0524483127096061,0.39674847719480805,1.9336451082661064,-3521336323803.458,0.0,223967409720.1845,0.43420272102119445,-0.5348627403664284,-0.3740585247088167,-0.6208623568216782,0.01849131017728159,0.0524483127096061,0.39674847719480805
