time,position_x,position_y,position_z,ground_station_distance,comm_range_status,wind_speed,wind_angle,battery_voltage,battery_current,velocity_x,velocity_y,velocity_z,velocity_total,acceleration_x,acceleration_y,acceleration_z,acceleration_total,angular_x,angular_y,angular_z,orientation_w,orientation_x,orientation_y,orientation_z,linear_acceleration_x,linear_acceleration_y,linear_acceleration_z
0.0,-74.07377126410223,21.45804724,269.3324017,280.15587444515734,0,7.693324017,180.0,11.032666899575,18.977746723333333,-0.008282678929703025,2.7814919292268314e-05,0.012359152323995204,0.028203459797794928,-0.08202848303824345,0.0013767338050030282,0.2606566705736669,0.2299369640320746,2696794786822966.0,0.0,-25642143347593.6,0.001481372995959266,-0.4707896286087741,0.0007905014014786962,0.8822439040514781,-0.08202848303824345,0.0013767338050030282,0.2606566705736669
0.2,-74.07542779988817,21.458052802983858,269.3348735304648,280.1586891986461,0,7.733346068691314,180.59998222238025,11.032666281617383,18.97782911768216,-0.008282678929703025,2.7814919292268314e-05,0.012359152323995204,0.028203459797794928,-0.08202848303824345,0.0013767338050030282,0.2606566705736669,0.2299369640320746,2696794786822966.0,0.0,-25642143347593.6,0.001481372995959266,-0.4707896286087741,0.0007905014014786962,0.8822439040514781,-0.08202848303824345,0.0013767338050030282,0.2606566705736669
0.3,-74.07707635261153,21.458069351813837,269.3387160124029,280.1628203821266,0,7.753378160529021,180.89994000119998,11.032665320996898,18.97795720041343,-0.016485527233527367,0.0001654882997925711,0.03842481938136189,0.028203459797794928,-0.08202848303824345,0.0013767338050030282,0.2606566705736669,0.2299369640320746,2696794786822966.0,0.0,-25642143347593.6,0.00419063974778869,-0.5503135929544323,0.0027620641243730312,0.8349429674833247,-0.08202848303824345,0.0013767338050030282,0.2606566705736669
0.5,-74.07871715591895,21.45809692612524,269.3430996973098,280.1674706558786,0,7.793389335514455,181.4997222376539,11.032664225075672,18.97810332324366,-0.008204016537121106,0.0001378715570155009,0.0219184245344195,0.028203459797794928,0.041407553482031303,-0.00013808371388535093,-0.08253197423471195,0.2299369640320746,2696794786822966.0,0.0,-25642143347593.6,0.006904289008270537,-0.5698087354686204,0.004787586130436247,0.8217343943124114,0.041407553482031303,-0.00013808371388535093,-0.08253197423471195
0.6,-74.0803499236306,21.45813551531022,269.3474454367244,280.1720831701299,0,7.813402467326133,181.79952003839853,11.03266313864082,18.978248181224146,-0.016327677116549925,0.0003858918498167442,0.043457394145889346,0.03524559115382722,-0.08123660579428821,0.0024802029280124333,0.2153896961146985,0.2299369640320746,2696794786822966.0,0.0,-25642143347593.6,0.009713173089517293,-0.5692590508747631,0.006726056597566843,0.8220733224161597,-0.08123660579428821,0.0024802029280124333,0.2153896961146985
0.81,-74.08197486974107,21.45818516851781,269.35001968225174,280.1749914145742,0,7.855323107926513,182.42881919217493,11.032662495079437,18.97833398940839,-0.007737838621275319,0.00023644384566658846,0.012258312034960212,0.028551881842918375,0.04090399283464096,-0.0007116571626197889,-0.14856705767109105,0.2252164133304718,2696794786822966.0,0.0,-25642143347593.6,0.013375762897904615,-0.48266444348269577,0.007372627903943177,0.8756721808543587,0.04090399283464096,-0.0007116571626197889,-0.14856705767109105
0.9,-74.08359171842,21.458245804653934,269.35422728558433,280.1794686116895,0,7.873299371251866,182.698380291575,11.032661443178604,18.978474242852812,-0.017964985321346685,0.0006737348458093116,0.04675114813987119,0.027831067477585257,-0.11363496333412632,0.004858788890474704,0.383253734499011,0.2386399290326226,2696794786822966.0,0.0,-25642143347593.6,0.015448440075209543,-0.5660646147555471,0.010610736559516014,0.8241478082786857,-0.11363496333412632,0.004858788890474704,0.383253734499011
1.1,-74.08520066401293,21.458317492381454,269.3537903985242,280.1794795288959,0,7.913094505659592,183.29704301743396,11.032661552400368,18.97845967995081,-0.008044727964673367,0.0003584386375976577,-0.0021844353005917574,0.023348318171814514,0.049601286783366574,-0.0015764810410582692,-0.24467791720231466,0.20625088239168274,2786291290003954.0,0.0,-12688875052567.875,0.022066327168351364,0.13202662812285615,-0.0029398123488029826,0.9909961675885341,0.049601286783366574,-0.0015764810410582692,-0.24467791720231466
1.2,-74.08680155104219,21.45840020012018,269.35495257300516,280.1810264432941,0,7.93297394030789,183.59616122861277,11.032661261856749,18.97849841910017,-0.016008870292552067,0.000827077387270948,0.01162174480953128,0.024125689100713676,-0.07964142327878711,0.004686387496732909,0.13806180110123056,0.2065230481061379,2786291290003954.0,0.0,-12688875052567.875,0.02454705101301866,-0.30843054247774654,0.007962021299619775,0.9508967604163302,-0.07964142327878711,0.004686387496732909,0.13806180110123056
1.4,-74.0883942542075,21.45849389604691,269.359482061114,280.18580924037747,0,7.972681049899613,184.19390487759242,11.032660129484722,18.978649402037135,-0.00796351582657451,0.0004684796336462683,0.022647440544290024,0.016561862077073764,0.0402267723298878,-0.0017929887681233988,0.05512847867379373,0.1345472909808893,2786291290003954.0,0.0,-12688875052567.875,0.023975505022730444,-0.5775784191024878,0.016974288104610557,0.8158064834808054,0.0402267723298878,-0.0017929887681233988,0.05512847867379373
1.5,-74.08997897838695,21.45859863809546,269.3604082151129,280.18712667490803,0,7.992480347098327,184.49250374910727,11.032659897946221,18.978680273837096,-0.015847241794517672,0.001047420485491556,0.009261539988756331,0.02305313450690518,-0.07883725967943156,0.005789408518452873,-0.1338590055553368,0.14326480454951446,2786291290003954.0,0.0,-12688875052567.875,0.0318505849888471,-0.2607732028028898,0.008608486707553794,0.9648361368089388,-0.07883725967943156,0.005789408518452873,-0.1338590055553368
1.7,-74.09155552863757,21.458714383956732,269.3622850874611,280.1893567771697,0,8.031987549008603,185.08908923171782,11.032659428728135,18.978742836248703,-0.007882751253092126,0.000578729306361936,0.00938436174095614,0.021498348563842026,0.03982245270712774,-0.002343455895648101,0.0006141087609990403,0.14096630974327035,2786291290003954.0,0.0,-12688875052567.875,0.03321653343562796,-0.4214988268909094,0.015451832308048113,0.906088650030686,0.03982245270712774,-0.002343455895648101,0.0006141087609990403
1.8,-74.09312377019624,21.458841121078745,269.3660495308367,280.1934001580595,0,8.051719642160014,185.38704932800138,11.03265848761729,18.978868317694555,-0.015682415586724105,0.001267371220130541,0.03764443375587231,0.024909144190175668,-0.07799664333631973,0.0068864191376860435,0.28260072014916143,0.18709080248020787,2786291290003954.0,0.0,-12688875052567.875,0.033551218217775326,-0.5537944559239667,0.022340975019415638,0.8316771592265613,-0.07799664333631973,0.0068864191376860435,0.28260072014916143
2.0,-74.09468387848045,21.458978886666692,269.3678748981585,280.19557808976987,0,8.091017410571707,185.98223801800413,11.03265803127546,18.97892916327195,-0.007800541421048026,0.0006888279397365694,0.009126836609141266,0.023589073241448284,0.039409370828380405,-0.0028927164019698585,-0.14258798573365525,0.1861551538721736,2786291290003954.0,0.0,-12688875052567.875,0.04000105320651254,-0.4172255208922185,0.018385807414836527,0.9077360533460657,0.039409370828380405,-0.0028927164019698585,-0.14258798573365525
2.1,-74.09623563908899,21.459127647683033,269.3716740426079,280.199652162168,0,8.110636540118279,186.27944015899064,11.032657081489347,18.979055801420262,-0.01551760608535345,0.0014876101634087023,0.03799144449374122,0.02938068182484042,-0.07717064664305417,0.007987822236721322,0.2886460788459993,0.23886525936084207,2786291290003954.0,0.0,-12688875052567.875,0.03967408587350626,-0.5563162688841021,0.02660490900605123,0.8295965011388082,-0.07717064664305417,0.007987822236721322,0.2886460788459993
2.3,-74.09777920780274,21.45928741084751,269.37344801765045,280.20177800404383,0,8.149689527246881,186.87299398884537,11.032656637995586,18.979114933921682,-0.007717843568784143,0.0007988158223781749,0.008869875212838009,0.02331955883380547,0.038998812582846584,-0.0034439717051526412,-0.14560784640451624,0.21046639426150088,2786291290003954.0,0.0,-12688875052567.875,0.04693694794635581,-0.41272702840302977,0.021302232654432665,0.9093951494411118,0.038998812582846584,-0.0034439717051526412,-0.14560784640451624
2.4,-74.09931436058547,21.459458162637258,269.3772704770579,280.2058717853943,0,8.169177957624848,187.16931929764107,11.032655682380735,18.979242349235264,-0.01535152782722092,0.0017075178974934587,0.038224594074449635,0.02477694070274155,-0.07633684258436771,0.009087020751152829,0.293547188616116,0.20270101825756184,2786291290003954.0,0.0,-12688875052567.875,0.04589469240824123,-0.558312530508967,0.030954514377445473,0.8277817426864906,-0.07633684258436771,0.009087020751152829,0.293547188616116
2.61,-74.10084121358449,21.459639909286867,269.37884927492956,280.20780726147217,0,8.209882119087215,187.79054958741378,11.032655287681267,18.97929497583099,-0.007270728566766139,0.0008654602362344664,0.007518085103204917,0.02167978248856636,0.038479996478356114,-0.004009798386947583,-0.14622147129164154,0.16084660950025276,2786291290003954.0,0.0,-12688875052567.875,0.05454596872838907,-0.38809466564096873,0.023016887681439984,0.9197159837025592,0.038479996478356114,-0.004009798386947583,-0.14622147129164154
2.7,-74.10235967313156,21.45983265678848,269.37967286571427,280.2090153439442,0,8.227259602034804,188.0563308041621,11.03265508178357,18.97932242885714,-0.016871772745237896,0.002141638906789144,0.009151008718946358,0.024406215833642313,-0.10667826864968584,0.014179763006163039,0.018143595730460396,0.14780292745959595,-4.113344699126671,0.0,0.3185350715928621,0.061176638121458085,-0.2438331045261477,0.015413783520413777,0.9677630140498668,-0.10667826864968584,0.014179763006163039,0.018143595730460396
2.9,-74.10386965574341,21.46003638089185,269.38455660423193,280.21412526188476,0,8.26575001625199,188.64590342175129,11.032653860848942,18.979485220141065,-0.0075499130592504675,0.0010186205168594155,0.024418692588312783,0.018956980501523685,0.046609298429937204,-0.0056150919496486505,0.07633841934683222,0.09814968439985239,1.7288986540901248,0.0,-0.3118275678023451,0.053975182421168305,-0.5911931322983712,0.03970149429376609,0.8037419681444314,0.046609298429937204,-0.0056150919496486505,0.07633841934683222
3.0,-74.1053712281227,21.46025109710448,269.3865960456952,280.21649942695245,0,8.28490637377963,188.94011988577776,11.032653350988577,18.979553201523174,-0.015015723792970434,0.002147162126284739,0.020394414632960416,0.026433691427264705,-0.0746581073371996,0.011285416094253225,-0.04024277955352363,0.14396134604454558,19.85233570080834,0.0,-0.3260349726108416,0.0634012790186868,-0.4478735289440912,0.031859631967155785,0.8912769175407149,-0.0746581073371996,0.011285416094253225,-0.04024277955352363
3.21,-74.10686429715864,21.46047680069167,269.38911404573116,280.21933225031864,0,8.324922417642766,189.55666554280648,11.032652721488567,18.979637134857704,-0.0071098525520510315,0.0010747789866221477,0.011990476361591262,0.02726376694702769,0.03764700590914002,-0.0051065863793456736,-0.040018753673186455,0.14657250100776661,8.048867440204521,0.0,0.31654776749227265,0.06521339815744213,-0.4914104568318198,0.03693285508896235,0.8676974932729026,0.03764700590914002,-0.0051065863793456736,-0.040018753673186455
3.3,-74.10834877992765,21.460713456676665,269.39315236040255,280.22362519893295,0,8.342017580393762,189.82033303863912,11.0326517119099,18.979771745346753,-0.01649425298906082,0.0026295109443926438,0.04487016301545238,0.03138380865096039,-0.1042711159667756,0.017274799530783317,0.36532985170956855,0.17408290601323734,6935344435534.52,0.0,-7430331104742.4,0.06484679568397235,-0.5688075898351683,0.0450551341682907,0.818671395445392,-0.1042711159667756,0.017274799530783317,0.36532985170956855
3.5,-74.10982475369427,21.460961069840742,269.39759994622955,280.2283101898401,0,8.379771614373198,190.40498125354344,11.032650600013442,18.97991999820765,-0.00737986883308394,0.0012380658203881001,0.02223792913497389,0.03117552868932975,0.04557192077988436,-0.006957225620022712,-0.11316116940239235,0.17878482741391627,6935344435534.52,0.0,-7430331104742.4,0.0674116065498543,-0.5815417250904446,0.04844199322567627,0.8092702086284413,0.04557192077988436,-0.006957225620022712,-0.11316116940239235
3.6,-74.11129207591175,21.461219654723333,269.4019709602113,280.23292012088075,0,8.398568176152292,190.69661818922106,11.032649507259947,18.980065698673712,-0.014673222174792486,0.002585848825908952,0.04371013981767642,0.03788799845291356,-0.07293353341708539,0.013477830055208506,0.21472210682702514,0.214087776700917,6935344435534.52,0.0,-7430331104742.4,0.0708379258092844,-0.5797509281233948,0.050693906942312995,0.8101240506280656,-0.07293353341708539,0.013477830055208506,0.21472210682702514
3.8,-74.11275083422277,21.461489195622143,269.4066148598472,280.237790965015,0,8.435907087424438,191.2784529096354,11.032648346285038,18.98022049532824,-0.007293791555085259,0.001347704494047976,0.023219498179400975,0.033359236199452344,0.03689715309853618,-0.006190721659304887,-0.10245320819137738,0.15930347161898906,6935344435534.52,0.0,-7430331104742.4,0.07367305986155182,-0.5873317488280593,0.05380647272701902,0.8041881375411392,0.03689715309853618,-0.006190721659304887,-0.10245320819137738
3.9,-74.11420088646024,21.461769686593264,269.4111340031583,280.2425404109567,0,8.454488170277905,191.56862483514698,11.03264721649921,18.98037113343861,-0.01450052237473186,0.002804909711215939,0.04519143311085823,0.03701935427175957,-0.07206730819646595,0.014572052171679617,0.21971934931457235,0.1725859506757783,6935344435534.52,0.0,-7430331104742.4,0.07722208262547132,-0.584414062808826,0.056004024048834554,0.8058290776812438,-0.07206730819646595,0.014572052171679617,0.21971934931457235
4.11,-74.11564231064789,21.462061121451338,269.4162250487086,280.247838211461,0,8.493214749186563,192.17629692654444,11.032645943737823,18.980540834956955,-0.0068639247030789835,0.0013877850384467283,0.024243074049189996,0.03458454962007507,0.03636475081739458,-0.006748212727472418,-0.09975409076984854,0.13755358838249143,6935344435534.52,0.0,-7430331104742.4,0.07958868268446123,-0.598047962018258,0.059852717158170234,0.7952496016743075,0.03636475081739458,-0.006748212727472418,-0.09975409076984854
4.2,-74.11707499500109,21.462363493769654,269.41968685562665,280.2515682702547,0,8.509717774675407,192.43600418538512,11.032645078286093,18.98065622852089,-0.015918715035607243,0.0033596924257355823,0.03846452131155179,0.037826763495189104,-0.10060878147253637,0.0219100820809873,0.1580160806929091,0.132968639421021,6935344435534.52,0.0,-7430331104742.4,0.08653154590330189,-0.5494832586835527,0.057353323286091475,0.8290301781588711,-0.10060878147253637,0.0219100820809873,0.1580160806929091
4.4,-74.11849889792748,21.462676816880325,269.4263298836264,280.2583551111164,0,8.546142228968263,193.01151495687571,11.032643417529092,18.980877662787545,-0.007119514631952478,0.0015666155533544655,0.03321513999878786,0.03459095122429742,0.04399600201827379,-0.008965384361905577,-0.026246906563819627,0.09700364078973775,6935344435534.52,0.0,-7430331104742.4,0.08422225794740372,-0.6230773636031053,0.06774228876956177,0.7746561769868656,0.04399600201827379,-0.008965384361905577,-0.026246906563819627
4.5,-74.11991402802767,21.4630010138744,269.4301199930287,280.2623978123031,0,8.564232268152749,193.2984092997603,11.032642470001742,18.981003999767623,-0.014151301001845746,0.0032419699407526654,0.03790109402302746,0.039427721096048585,-0.07031786369893293,0.01675354387398206,0.04685954024239612,0.11217269065138924,6935344435534.52,0.0,-7430331104742.4,0.09258091805309805,-0.5631106701970621,0.06367764754345494,0.8187064821570627,-0.07031786369893293,0.01675354387398206,0.04685954024239612
4.7,-74.12132034409599,21.463336147602057,269.43622404478214,280.2686635277785,0,8.600134811205958,193.87041214631236,11.032640943988804,18.981207468159404,-0.007031580341632087,0.0016756686382812787,0.030520258767126024,0.03801421893637329,0.03559860330106826,-0.007831506512356926,-0.036904176279507137,0.08961308070476212,6935344435534.52,0.0,-7430331104742.4,0.09153952588007534,-0.6160570164232121,0.07239149587929593,0.7790081764922234,0.03559860330106826,-0.007831506512356926,-0.036904176279507137
4.8,-74.12271779512109,21.463682200672725,269.4409515004844,280.2736043448134,0,8.61796786608781,194.1554952277253,11.032639762124878,18.981365050016148,-0.01397451025098922,0.0034605307066826307,0.04727455702266087,0.041093088172878434,-0.06942929909357157,0.017848620684013584,0.16754298255534902,0.10945153890552817,6935344435534.52,0.0,-7430331104742.4,0.09728858081261016,-0.5908842938842555,0.07207236268550098,0.7976191182646656,-0.06942929909357157,0.017848620684013584,0.16754298255534902
5.0,-74.12410639028668,21.464039145455263,269.44774102240336,280.28052602111393,0,8.65332848743244,194.72376135582684,11.032638064744399,18.981591367413447,-0.006942975827968206,0.0017847239126922417,0.033947609594804334,0.04081323774197383,0.03515767211510504,-0.008379033969951937,-0.06663473713928261,0.103537609035248,6935344435534.52,0.0,-7430331104742.4,0.09745763322642076,-0.6248586576103959,0.07902681376037149,0.7705896641158133,0.03515767211510504,-0.008379033969951937,-0.06663473713928261
5.1,-74.12548604897225,21.464406994078125,269.45247017349755,280.28546543159064,0,8.67087919550079,195.00691914633666,11.032636882456625,18.981749005783254,-0.013796586855647823,0.0036784862286154537,0.04729151094181833,0.044437207816577506,-0.06853611027679642,0.018937623159232187,0.1334390134701404,0.11584100663513039,6935344435534.52,0.0,-7430331104742.4,0.10429636147184863,-0.5911690268138451,0.07745668058303608,0.7960162770652133,-0.06853611027679642,0.018937623159232187,0.1334390134701404
5.3,-74.12685681075364,21.46478570842954,269.4601775174376,280.2932664083812,0,8.70566845758407,195.57122125711322,11.03263495562064,18.982005917247918,-0.006853808906939201,0.001893571757083377,0.03853671970034608,0.04298780529633499,0.03471388974354308,-0.008924572357660376,-0.04377395620736121,0.08837242023864425,6935344435534.52,0.0,-7430331104742.4,0.10327527017266128,-0.6339437679110639,0.08596281932519008,0.7616166433259921,0.03471388974354308,-0.008924572357660376,-0.04377395620736121
5.4,-74.12821857540376,21.465175330157685,269.46491891862695,280.2982145304166,0,8.722921172492494,195.85234049737906,11.032633770270342,18.982163963954232,-0.013617646501273766,0.003896217281429394,0.047414011893351676,0.05348102298782811,-0.06763837594334529,0.020026455243460063,0.08877292193005552,0.17322895363271335,6935344435534.52,0.0,-7430331104742.4,0.11137800883999707,-0.5916077153302698,0.08296940255060602,0.7941733617724354,-0.06763837594334529,0.020026455243460063,0.08877292193005552
5.61,-74.1295713628933,21.46557579067086,269.4736617422226,280.3070078810609,0,8.758802992017447,196.44038273173368,11.032631584564443,18.98245539140742,-0.006441845188273225,0.0019069548246518158,0.04163249331256902,0.050574927051907984,0.03417048244285972,-0.009472678365607518,-0.027531040860869802,0.19529564144677597,-659855783580.4143,0.0,4077748475768.0986,0.10918322882075818,-0.6416396692692539,0.09297691398175888,0.7534804913405158,0.03417048244285972,-0.009472678365607518,-0.027531040860869802
5.7,-74.13091510339135,21.465987141137706,269.4813794541554,280.3148141831326,0,8.774077892009492,196.69142112358423,11.03262965513646,18.982712648471846,-0.014930449978262735,0.004570560742717735,0.08575235480887197,0.061379871886683104,-0.0943178309998836,0.02959562131184359,0.4902206832922558,0.3008154685514509,-659855783580.4143,0.0,4077748475768.0986,0.11362960525832175,-0.6335936803869638,0.09480753124620667,0.7593805982519829,-0.0943178309998836,0.02959562131184359,0.4902206832922558
5.9,-74.13224980726604,21.466409332487355,269.48821142115156,280.3217674139632,0,8.807604160037084,197.24711973558604,11.032627947144713,18.982940380705053,-0.00667351937345017,0.0021109567482469043,0.034159834980869136,0.0645055828841252,0.041284653024062784,-0.012298019972354142,-0.25796259914001396,0.30643876191912556,-659855783580.4143,0.0,4077748475768.0986,0.1182251759753024,-0.6247641061456606,0.09645688836572949,0.7657602027556824,0.041284653024062784,-0.012298019972354142,-0.25796259914001396
6.0,-74.13357539508522,21.466842355409682,269.4974277107527,280.33101124257223,0,8.824259223897597,197.52382540388928,11.032625643072311,18.983247590358424,-0.013255878191813555,0.004330229223263886,0.09216289601113237,0.0659466061789902,-0.06582358818363408,0.0221927247501699,0.5800306103026344,0.334791286014063,-659855783580.4143,0.0,4077748475768.0986,0.11919273420132356,-0.6439619452097812,0.10251434337417412,0.7487302014997187,-0.06582358818363408,0.0221927247501699,0.5800306103026344
6.2,-74.1348918576171,21.46728622035547,269.5103759913361,280.3438412653265,0,8.85717408098797,198.07488797572614,11.032622406002165,18.983679199711204,-0.006582312659446637,0.0022193247289337115,0.06474140291714997,0.06308412174058131,0.03336782766183456,-0.010554522471650864,-0.13710746546991187,0.2608427189465618,-659855783580.4143,0.0,4077748475768.0986,0.12041897698619575,-0.659510393506322,0.10818985953716427,0.7340573990718048,0.03336782766183456,-0.010554522471650864,-0.13710746546991187
6.3,-74.13619919583097,21.467740907536633,269.51511563213575,280.34877828355263,0,8.873440672205897,198.34922038768065,11.032621221091965,18.98383718773786,-0.013073382138628678,0.004546871811648162,0.04739640799641637,0.06594400030650553,-0.06491069479182064,0.02327547082714459,-0.17344994920733664,0.2609812573159355,-659855783580.4143,0.0,4077748475768.0986,0.13327701391516322,-0.591482640041152,0.09992222359737073,0.7889239971779052,-0.06491069479182064,0.02327547082714459,-0.17344994920733664
6.5,-74.13749735089766,21.46820638692645,269.5296202032623,280.3631012915945,0,8.905669013504703,198.89542650167127,11.032617594949183,18.984320673442078,-0.006490775333460868,0.002327396949084457,0.07252285563282605,0.06298514137408212,0.03291303402583902,-0.011097374312818514,0.1256322381820483,0.1758146044163278,-659855783580.4143,0.0,4077748475768.0986,0.12672702380879416,-0.6628659828752623,0.11524941862907237,0.7288803205527219,0.03291303402583902,-0.011097374312818514,0.1256322381820483
6.6,-74.13878631419036,21.468682678259746,269.5343411757234,280.3680171580065,0,8.921577115704102,199.16727592796997,11.03261641470607,18.98447803919078,-0.012889632926942386,0.004762913332960767,0.0472097246108662,0.05978717928622061,-0.0639885759348154,0.024355163838763186,-0.25313131021959945,0.21084785073861548,-659855783580.4143,0.0,4077748475768.0986,0.14081448908858435,-0.5908437744647139,0.10567109314000114,0.7873427042359689,-0.0639885759348154,0.024355163838763186,-0.25313131021959945
6.8,-74.14006600728514,21.46916977103316,269.5499648214441,280.383412800158,0,8.953085696251378,199.70840710895135,11.032612508794639,18.98499882738147,-0.006398465473935738,0.0024354638670764906,0.0781182286036141,0.06723232338801097,0.03245583726503321,-0.011637247329421372,0.15454251996373938,0.21325577460306017,-659855783580.4143,0.0,4077748475768.0986,0.13334518436088127,-0.6643957494509808,0.12216989853311822,0.7251702322983478,0.03245583726503321,-0.011637247329421372,0.15454251996373938
6.9,-74.14133648196164,21.469667644505353,269.5546838132865,280.3883235261016,0,8.9686212025768,199.9776648134484,11.032611329046677,18.98515612710955,-0.012704746765024243,0.00497873472191654,0.04718991842366879,0.08634519549014866,-0.06306281291088471,0.025432708548400358,-0.30928310179945145,0.35081230519676315,-659855783580.4143,0.0,4077748475768.0986,0.14839906112135262,-0.590476525776018,0.11156750227703252,0.785409373257952,-0.06306281291088471,0.025432708548400358,-0.30928310179945145
7.1,-74.14259767020367,21.470176277697252,269.57195072507045,280.4052957352997,0,8.999387049293778,200.51350461616315,11.032607012318731,18.985731690835685,-0.00630594121012964,0.0025431659594943403,0.08633455891981642,0.08359116482158033,0.031994027774473126,-0.01217784381211104,0.19572320248073885,0.4316600368878671,-659855783580.4143,0.0,4077748475768.0986,0.139892830494548,-0.6663500260082938,0.12930846822930958,0.7208931674382547,0.031994027774473126,-0.01217784381211104,0.19572320248073885
7.2,-74.14384949419978,21.47069567939229,269.5887375315929,280.4218047774704,0,9.014656719258877,200.78006289936673,11.032602815617102,18.986291251053096,-0.012518239961138922,0.0051940169503694456,0.16786806522475128,0.1046730469163615,-0.062122987510092494,0.02650850990875091,0.8153350630493442,0.6974643358124688,-659855783580.4143,0.0,4077748475768.0986,0.1436090181624895,-0.664989798170863,0.13248187091576955,0.7208422657625856,-0.062122987510092494,0.02650850990875091,0.8153350630493442
7.4,-74.14509204634398,21.471225828136657,269.5956872086481,280.4288551034413,0,9.04453269534277,201.31039699503822,11.032601078197837,18.98652290695494,-0.006212760720956107,0.0026507437218370434,0.034748385275804566,0.11538476311217258,0.03152739620091405,-0.012716366142662,-0.665598399744733,0.7114251329687393,-659855783580.4143,0.0,4077748475768.0986,0.1545373509703219,-0.6231888778417067,0.1273899905862574,0.7559931348814637,0.03152739620091405,-0.012716366142662,-0.665598399744733
7.5,-74.1463251692362,21.471766702239538,269.6140205330471,280.4468476724455,0,9.05941772537714,201.57414923718915,11.032596494866738,18.987134017768238,-0.01233122892230658,0.0054087410288161854,0.18333324399009207,0.10899973866651783,-0.061184682013504944,0.027579973069791517,1.4858485871428804,0.7840906280412742,27166465319364.305,0.0,-27307388957.513714,0.15032405729818488,-0.6662299763047214,0.13968811939899609,0.7169571296592246,-0.061184682013504944,0.027579973069791517,1.4858485871428804
7.71,-74.14754890568308,21.472318309773403,269.63554188263794,280.4679035266971,0,9.09006102104583,202.1248939586155,11.03259111452934,18.987851396087933,-0.005827316413688421,0.002626702542213047,0.1024826170992453,0.0982706262706701,0.03097101194580076,-0.013247802317157805,-0.3850029851945085,0.6829637055283042,1631654164699.0862,0.0,-4515506697011.304,0.1531631970070314,-0.669451580881261,0.14390785264377098,0.7125069444472975,0.03097101194580076,-0.013247802317157805,-0.3850029851945085
7.8,-74.1487632486984,21.472880628574234,269.6402773363248,280.4728201730262,0,9.10296161176407,202.35960620296817,11.03258993066592,18.98800924454416,-0.013492700170224423,0.006247986675905152,0.052616152076249596,0.10007606710817815,-0.08517093062817793,0.04023649037435678,-0.554071833588842,0.6806359041271481,-3.664222187652149,0.0,-0.621297253928617,0.1715674911002695,-0.5892186086099677,0.12980238534957694,0.7788050898799086,-0.08517093062817793,0.04023649037435678,-0.554071833588842
8.0,-74.1499681115038,21.47345362624181,269.6631922740874,280.4952125242547,0,9.13134410453992,202.87829479190856,11.032584201931478,18.988773075802914,-0.006024314026973338,0.0028649883378761816,0.11457468881303602,0.0887370742385557,0.03734193071625539,-0.016914991690144834,0.30979268368393187,0.4719497064856789,-3.664222187652149,0.0,-0.621297253928617,0.16012179895340375,-0.6694143392023908,0.15107021253824893,0.709523250396913,0.03734193071625539,-0.016914991690144834,0.30979268368393187
8.11,-74.15116353752921,21.474037330139986,269.667894577001,280.5000939372716,0,9.146631566859252,203.16184574156526,11.03258302635575,18.988929819233366,-0.010867509321986926,0.005306399074327018,0.04274820830532526,0.07708202897915174,-0.04402904813648739,0.022194643058644086,-0.6529680046155557,0.548008048539107,-3.664222187652149,0.0,-0.621297253928617,0.1795855041801454,-0.5877404380736141,0.1358276972025825,0.7770849765720881,-0.04402904813648739,0.022194643058644086,-0.6529680046155557
8.3,-74.15234941041369,21.474631707396963,269.6920132272551,280.52364023130446,0,9.172782874492476,203.64867307169013,11.032576996693185,18.989733774241838,-0.006241436234090142,0.00312830135251154,0.12694026449516405,0.09284670126805068,0.024347753094193438,-0.011463672220081388,0.4431160852096748,0.5310930368182085,-3.664222187652149,0.0,-0.621297253928617,0.16720435021977437,-0.6689511609637097,0.15826104323385878,0.7067534872269245,0.024347753094193438,-0.011463672220081388,0.4431160852096748
8.41,-74.15352580400574,21.475236744905565,269.69671540817285,280.52851813028224,0,9.187587574809584,203.92879124602558,11.032575821147956,18.98989051360576,-0.010694487200427512,0.00550034098729671,0.04274709925249993,0.11673413374584456,-0.04048228151215812,0.021563996679865294,-0.7653924112969506,0.6700114011160114,-3.664222187652149,0.0,-0.621297253928617,0.1875557648651222,-0.5868621154102639,0.1420715601507963,0.7747459998982684,-0.04048228151215812,0.021563996679865294,-0.7653924112969506
8.6,-74.15469256236406,21.47585241932355,269.72204610423046,280.553226359648,0,9.212905586832859,204.40959219755445,11.032569488473943,18.990734870141015,-0.006140833464859226,0.003240391673611357,0.13331945293478084,0.11495783829664023,0.023966598608254203,-0.011894470072028205,0.47669659832779554,0.7380578939318821,-3.664222187652149,0.0,-0.621297253928617,0.1743492439059831,-0.6682836137680547,0.16550534291940042,0.7039938452739861,0.023966598608254203,-0.011894470072028205,0.47669659832779554
8.7,-74.15584975975806,21.476478727073886,269.74542970107586,280.5760610542609,0,9.226112171061768,204.6610771556343,11.03256364257473,18.991514323369195,-0.011571973939936739,0.00626307750334123,0.23383596845406002,0.13027133446852912,-0.054311404750775324,0.030226858297298844,1.0051651551927954,0.9301545034136666,327608640225.5812,0.0,-2356065811939.706,0.17840900892721576,-0.6659320701103346,0.16865202129991919,0.7044580890611056,-0.054311404750775324,0.030226858297298844,1.0051651551927954
8.9,-74.15699741066837,21.477115654345056,269.7524163855476,280.5831301194671,0,9.251667658909124,205.16074781199663,11.032561895903612,18.991747212851585,-0.005738254551559377,0.0031846363558507393,0.034933422358562706,0.15198461008596054,0.029168596941886654,-0.015392205737452373,-0.9945127304774813,0.833177307078234,6.188471210916269,0.0,-0.22909862412714405,0.1928899421163618,-0.6181215338082005,0.16002716722932947,0.7450574108224819,0.029168596941886654,-0.015392205737452373,-0.9945127304774813
9.02,-74.15813536978757,21.47776319709135,269.77682524569383,280.6069471576206,0,9.266905376620768,205.45840883930293,11.032555793688577,18.992560841523126,-0.009482992660044511,0.005396189552442401,0.2034071678854364,0.13491596706401598,-0.031206150904042988,0.0184296099715973,1.4039478793906233,0.9508830422170647,2.268364197214666,0.0,0.4155366311508487,0.1856562536992445,-0.6650224421656883,0.1759644979567719,0.7016504844558769,-0.031206150904042988,0.0184296099715973,1.4039478793906233
9.2,-74.15926366202054,21.478421321033203,269.8043293707909,280.6337383789753,0,9.289246533780641,205.90183946278617,11.032548917657302,18.99347764569303,-0.006268290183126318,0.0036562441214095425,0.15280069498386561,0.11656681000073624,0.0178594582051011,-0.009666363505738117,-0.28114707167539366,0.8456399075965229,310794749811.5197,0.0,-2436906242941.909,0.18885635066765288,-0.6662169639748723,0.1801001860190361,0.6986072993610278,0.0178594582051011,-0.009666363505738117,-0.28114707167539366
9.3,-74.16038232248515,21.47909003165749,269.8089653513622,280.63854225458374,0,9.301329535281177,206.14658222417873,11.03254775866216,18.99363217837874,-0.011186604646127148,0.006687106242857415,0.046359805712653974,0.119143486241769,-0.0491831446300076,0.03030862121447829,-1.0644088927121014,0.8383758929796633,316374019335.8352,0.0,9059262999.073048,0.2121360263116934,-0.5821089964882785,0.16072245919714856,0.7683200593878275,-0.0491831446300076,0.03030862121447829,-1.0644088927121014
9.5,-74.16149123651279,21.479769304217843,269.83742767919597,280.66625135258266,0,9.325205286370707,206.63257072314389,11.0325406430802,18.994580922639866,-0.0055445701381984435,0.003396362801773035,0.1423116391688955,0.10674897519702468,0.02821017253964362,-0.016453717205421957,0.4797591672812094,0.6526375792823899,316374019335.7151,0.0,9059262999.734573,0.196206895515802,-0.6648629733323453,0.18744702674265756,0.6959336843471953,0.02821017253964362,-0.016453717205421957,0.4797591672812094
9.6,-74.16259046964885,21.480459123734995,269.84209334736454,280.6710802548476,0,9.336804070075642,206.87379486130766,11.032539476663159,18.99473644491215,-0.010992331360597558,0.006898195171523038,0.04665668168570408,0.0849252440157326,-0.05447761222399134,0.03501832369750015,-0.9565495748319176,0.777114023353875,287601439155.6078,0.0,-2458430219657.042,0.22020750887352797,-0.581392255164156,0.1673166211761257,0.7651776571156902,-0.05447761222399134,0.03501832369750015,-0.9565495748319176
9.8,-74.16367991765334,21.48115946499708,269.87040915024176,280.69864510860697,0,9.359698832486359,207.35264931030852,11.032532397712439,18.995680305008058,-0.005447240022462523,0.003501706310426992,0.14157901438608103,0.10337747941881095,0.027725456690675027,-0.01698244430548014,0.4746116635018822,0.6620816545398596,287601439159.5125,0.0,-2458430219657.706,0.2037594136270315,-0.6627705010456002,0.19465269841821042,0.6937778400184325,0.027725456690675027,-0.01698244430548014,0.4746116635018822
9.91,-74.16475962650141,21.481870332560007,269.87505668352196,280.70345303073105,0,9.371899067548618,207.61395197282562,11.032531235829119,18.995835222784066,-0.009815534982429002,0.0064624323902377975,0.042250302547328054,0.12505841389876543,-0.03971177236333183,0.026915691634643826,-0.9029882894432135,0.7868105307573718,-23193310655.210987,0.0,-21523976716.249275,0.22854285686222772,-0.5795319701901623,0.17364984305245001,0.762729696624315,-0.03971177236333183,0.026915691634643826,-0.9029882894432135
10.11,-74.16582949238379,21.482591700747765,269.90311064423724,280.73076273524026,0,9.393757670112091,208.08523338561238,11.03252422233894,18.996770354807907,-0.0053493294119278025,0.0036068409387901698,0.14026980357641655,0.12276512455669812,0.022331027852506076,-0.01427795725723819,0.4900975051454442,0.8206254925771217,-72937765741.68599,0.0,-4957763387027.749,0.2113751417748429,-0.6605094143427838,0.2018764025170443,0.6915878694070582,0.022331027852506076,-0.01427795725723819,0.4900975051454442
10.21,-74.16688947170748,21.48332355365279,269.92816403077563,280.7551859215511,0,9.404543563826579,208.31900697273568,11.032517958992306,18.997605467692523,-0.010599793236849413,0.007318529050266316,0.25053386538388267,0.1440582759749354,-0.052504638249215356,0.037116881114760934,1.1026406180746455,1.148703028359485,-72937765745.62056,0.0,-4957763387027.741,0.21574421292803048,-0.6575164839186853,0.2049369750757863,0.6921902514555232,-0.052504638249215356,0.037116881114760934,1.1026406180746455
10.4,-74.16793969109605,21.484065875136313,269.93506794289914,280.7621578309421,0,9.42415913391567,208.75970075385504,11.032516233014276,18.997835598096636,-0.005527470466179971,0.003906955176428325,0.0363363795973951,0.16117157401873095,0.026696435635102395,-0.01795565196756842,-1.1273551883499375,1.0866234169191142,24932362844635.33,0.0,14006792484.258595,0.2329058810701568,-0.6090824436584646,0.19352612581819606,0.7330218728085587,0.026696435635102395,-0.01795565196756842,-1.1273551883499375
10.5,-74.16897998739044,21.484818648828703,269.959853981761,280.7863205118738,0,9.434444991005645,208.9897959256961,11.03251003650456,18.998661799392032,-0.010402962943913999,0.0075277369239046535,0.24786038861862014,0.1425671325463631,-0.048754924777340454,0.03620781747476341,2.1152400902122577,1.1562067196506676,24932362844635.33,0.0,14006792484.258595,0.22342743637192178,-0.6550746193176771,0.21215197706516264,0.6898905438034456,-0.048754924777340454,0.03620781747476341,2.1152400902122577
10.7,-74.17001039764911,21.485581868129845,269.9857063499236,280.8115067155665,0,9.4542580720486,209.4461108084199,11.03250357341252,18.999523544997455,-0.00515205129332232,0.0038160965057088127,0.1292618408129447,0.11799988285983205,0.026254558252958488,-0.01855820209097927,-0.5929927390283793,1.0177892274116735,24932362844635.33,0.0,14006792484.258595,0.22702193118819863,-0.6546424761201777,0.21604068300746077,0.6879176509615763,0.026254558252958488,-0.01855820209097927,-0.5929927390283793
10.8,-74.17103092914894,21.486355496209498,269.99026965137546,280.81622283626115,0,9.46381831028365,209.6723102387163,11.032502432587156,18.99967565504585,-0.010205314998330405,0.0077362807965285505,0.045633014518670544,0.11990634228083293,-0.050532637050080126,0.039201842908196824,-0.8362882629427296,0.9590451007215618,24932362844635.33,0.0,14006792484.258595,0.2539540592286134,-0.5725792534473635,0.19249648990417198,0.7553842966977423,-0.050532637050080126,0.039201842908196824,-0.8362882629427296
11.0,-74.17204148938544,21.487139526007663,270.0158433915489,280.8411376315135,0,9.48257315403836,210.120742811271,11.032496039152113,19.00052811305163,-0.00505280118247244,0.003920148990825836,0.1278687008672823,0.09323563021846948,0.025762569079289914,-0.01908065902851364,0.41117843174306024,0.6027697968757979,24932362844635.33,0.0,14006792484.258595,0.23472866803870426,-0.6520501094429434,0.2232824135384609,0.6854765283951456,0.025762569079289914,-0.01908065902851364,0.41117843174306024
11.1,-74.17304211607333,21.48793394023497,270.02031377733726,280.84576075523086,0,9.491600509133468,210.34295602326654,11.032494921555665,19.000677125911242,-0.010006266878974691,0.0079441422730753,0.04470385788351921,0.0758126125219922,-0.04953465696502269,0.04023993282249478,-0.8316484298376339,0.6332756726331624,24932362844635.33,0.0,14006792484.258595,0.2628649343092982,-0.5685888826782659,0.19826316211187012,0.7538570337634662,-0.04953465696502269,0.04023993282249478,-0.8316484298376339
11.31,-74.17403273714712,21.488738741373037,270.0443962171112,280.8692381757933,0,9.51012075599029,210.80520245661052,11.032488900945722,19.00147987390371,-0.004717243208487836,0.0038323863717456027,0.11467828463791839,0.09395598970216186,0.025185827002318258,-0.01957979000633181,0.33321155597332813,0.5684759227857504,24932362844635.33,0.0,14006792484.258595,0.24274644034420576,-0.6484872394122307,0.23022189003240606,0.6837662958713508,0.025185827002318258,-0.01957979000633181,0.33321155597332813
11.41,-74.17501338076144,21.4895538816749,270.0484300207368,280.87343785544107,0,9.518585572674432,211.0232032194721,11.032487892494816,19.00161433402456,-0.009806436143264853,0.008151403018636956,0.04033803625588931,0.11455004948728034,-0.05089192934777036,0.04319016646891369,-0.7434024838202934,0.6717777072660696,24932362844635.33,0.0,14006792484.258595,0.2741385385602818,-0.5558311294549336,0.20084809155946823,0.7586566162117122,-0.05089192934777036,0.04319016646891369,-0.7434024838202934
11.6,-74.17598391529167,21.490379343165344,270.0746404995911,280.8989576967101,0,9.534352622539444,211.43359810560466,11.032481339875101,19.00248801665304,-0.005108076474869007,0.004344534160226574,0.1379498887068194,0.11146217921200194,0.024728208781030832,-0.020036151886370486,0.5137465918470019,0.6957222291013817,24932362844635.33,0.0,14006792484.258595,0.24991259013005235,-0.6473417075323961,0.23805937435727356,0.6795735024735395,0.024728208781030832,-0.020036151886370486,0.5137465918470019
11.7,-74.17694441933429,21.491215117641353,270.0977052665796,280.92145130070406,0,9.542478248138067,211.64757386401845,11.032475573683355,19.003256842219322,-0.009605040426237145,0.008357744760090243,0.23064766988511648,0.13728556700553068,-0.044969639513681534,0.040132105998636834,0.9269778117829741,1.1026461132332277,24932362844635.33,0.0,14006792484.258595,0.25453257225701215,-0.6437568896367871,0.24086940590779843,0.6802735964323638,-0.044969639513681534,0.040132105998636834,0.9269778117829741
11.91,-74.17789492170748,21.49206118667248,270.10410133615255,280.9279166399774,0,9.558521339111604,212.09233335092716,11.032473974665962,19.003470044538417,-0.004526201777076974,0.004028900148222447,0.030457474156805893,0.15437401107206322,0.02418494594838167,-0.020613545770798946,-0.9532866463252847,1.0695848019999883,24932362844635.33,0.0,14006792484.258595,0.2749671679415637,-0.5928892864058997,0.2256509005513588,0.7224659311688405,0.02418494594838167,-0.020613545770798946,-0.9532866463252847
12.0,-74.17883525145146,21.49291753160126,270.12602052432106,280.9493051559091,0,9.565338377177664,212.28102409047852,11.032468494868919,19.004200684144035,-0.010448108266479687,0.009514943653125382,0.2435465352056734,0.13096129476822987,-0.06579896099336358,0.06095603894336604,2.3676562338763096,1.0741612540122556,-57854340496362.375,0.0,-2546120019140.281,0.2625573234839766,-0.6400388638094,0.24776443586579644,0.6782526734327012,-0.06579896099336358,0.06095603894336604,2.3676562338763096
12.2,-74.17976549782905,21.493784133543638,270.1515384486735,280.97415199956987,0,9.57971409712487,212.696166348446,11.032462115387832,19.00505128162245,-0.004651231887962143,0.004333009711885454,0.12758962176207023,0.1370800088788377,0.028984381892587823,-0.02590966970619973,-0.579784567218018,1.3709748259661745,-57854340496362.375,0.0,-2546120019140.281,0.2653570112586309,-0.6413898379261911,0.2524654660069126,0.6741408761192379,0.028984381892587823,-0.02590966970619973,-0.579784567218018
12.4,-74.18068565032607,21.49466097338936,270.1555518283917,280.97832079649186,0,9.593123517182995,213.10549604073105,11.032461112042903,19.00518506094639,-0.0046007624850829855,0.004384199228617523,0.020066898591153296,0.13950200287993125,0.0002523470143957844,0.0002559475836603464,-0.5376136158545818,1.6202757169265154,-57854340496362.375,0.0,-2546120019140.281,0.29975334079432253,-0.5485088781928259,0.2194949303598865,0.7490713722821071,0.0002523470143957844,0.0002559475836603464,-0.5376136158545818
12.5,-74.18159556865183,21.495548031802414,270.18168018426684,281.0037508886527,0,9.599786040553841,213.30795839382168,11.032454579953933,19.00605600614223,-0.00909918325760376,0.008870584130527024,0.26128355875130277,0.11623639539806714,-0.044984207725207906,0.04486384901909517,2.4121666016015033,1.2328569904189446,-57854340496362.375,0.0,-2546120019140.281,0.2728322577625871,-0.6388823429480445,0.2598854977028883,0.6707096533352628,-0.044984207725207906,0.04486384901909517,2.4121666016015033
12.6,-74.1824953827395,21.49644528922144,270.1858053387151,281.00802335131414,0,9.606038736568184,213.50894039868865,11.032453548665321,19.006193511290505,-0.008998140876741476,0.0089725741902669,0.04125154448274785,0.09934520347191826,0.001010423808622839,0.0010199005973987633,-2.200320142685557,1.2892797162081329,-57854340496362.375,0.0,-2546120019140.281,0.3073342166782415,-0.5489212908813631,0.22691331270572104,0.7434658325658452,0.001010423808622839,0.0010199005973987633,-2.200320142685557
12.8,-74.18338494274673,21.497352705860184,270.2112993157935,281.0328398120996,0,9.618144713736385,213.90642769994,11.03244717517105,19.00704331052645,-0.004447800036118087,0.004537083193714129,0.12746988539191695,0.12103588188696315,0.022751704203116827,-0.022177454982763738,0.4310917045458432,1.2699484273518309,-57854340496362.375,0.0,-2546120019140.281,0.2805738144115317,-0.6354946833865827,0.2669372582284697,0.6679590872376974,0.022751704203116827,-0.022177454982763738,0.4310917045458432
12.9,-74.18426434905584,21.498270301707898,270.2154377412153,281.0371212075951,0,9.623824505824299,214.10291533028746,11.032446140564696,19.00718125804051,-0.00879406309110212,0.009175958477136736,0.04138425421786011,0.11658163622847528,-0.04346263054984049,0.046388752834226235,-0.8608563117405715,1.006989706269785,-57854340496362.375,0.0,-2546120019140.281,0.3156428253946655,-0.5466283737853938,0.23325518179273858,0.7397019994000591,-0.04346263054984049,0.046388752834226235,-0.8608563117405715
13.1,-74.18513347227447,21.499198036529826,270.2413070423655,281.0622948324431,0,9.634782973649124,214.491334887058,11.032439673239407,19.00804356807885,-0.004345616093175424,0.00463867410964271,0.12934650575118714,0.11438423152326685,0.02224223498963356,-0.022686421837470213,0.43981125766663676,0.7744637848323626,-57854340496362.375,0.0,-2546120019140.281,0.2880310688606443,-0.6326610452081002,0.274224467463358,0.6645141433345317,0.02224223498963356,-0.022686421837470213,0.43981125766663676
13.2,-74.18599232323588,21.500135879867617,270.265205348316,281.0855715290335,0,9.64008225371969,214.6832495504536,11.03243369866292,19.0088401782772,-0.008588509614071458,0.009378433377911255,0.23898305950467688,0.13317074818910238,-0.04242893520896049,0.04739759268268562,1.0963655375349013,1.0330800296327873,-57854340496362.375,0.0,-2546120019140.281,0.2923542134495109,-0.6297503733925875,0.27721100956158684,0.6641517426522799,-0.04242893520896049,0.04739759268268562,1.0963655375349013
13.4,-74.18684099299941,21.501083831039793,270.2715137898406,281.09193362436065,0,9.649684221289045,215.06244600009956,11.032432121552539,19.009050459661353,-0.0042433488176385255,0.004739755860878578,0.03154220762297638,0.15220990819135743,0.021725803982164546,-0.02319338758516326,-1.037204259408497,0.9478881617598157,-57854340496362.375,0.0,-2546120019140.281,0.31576075120105307,-0.5782372065174609,0.2584336815559398,0.7065047156511222,0.021725803982164546,-0.02319338758516326,-1.037204259408497
13.51,-74.18767926285093,21.502041869142193,270.2958521994301,281.1156297240802,0,9.654842275225526,215.26835139763472,11.032426036950142,19.009861739981005,-0.007620635013888079,0.008709437294546757,0.2212582689956198,0.1348809269195173,-0.030702601784087007,0.03608801303334727,1.7246914670240399,1.0548871733159717,16879167204345.074,0.0,2544145551457.1475,0.299724447151156,-0.6268713052433124,0.28445729441851036,0.6605162148612104,-0.030702601784087007,0.03608801303334727,1.7246914670240399
13.7,-74.18850727430318,21.503009953048448,270.32213401130696,281.1411926151293,0,9.663037462910298,215.61953260223407,11.032419466497172,19.010737800376898,-0.004357955011800509,0.0050951784539720706,0.13832532566766567,0.11357039577555392,0.017172000010987256,-0.019022414950393137,-0.436489175410286,0.9271638800693689,-280334983945.2241,0.0,-2532244893214.1523,0.3028850519191636,-0.6265194016112579,0.28855970603478553,0.657622521498249,0.017172000010987256,-0.019022414950393137,-0.436489175410286
13.8,-74.18932499909627,21.50398807141043,270.32622576143996,281.1454174999513,0,9.666969318359119,215.80207290163648,11.03241844355964,19.010874192047996,-0.00817724793094487,0.009781183619814587,0.04091750132999947,0.11565442369110372,-0.03819292919144307,0.0468600516584245,-0.9740782433766482,0.9040250220553364,-335519013224.3882,0.0,-6554256863.7578125,0.3410554867903443,-0.5369181760601256,0.25096119639102227,0.7296701344117464,-0.03819292919144307,0.0468600516584245,-0.9740782433766482
14.0,-74.19013230919799,21.504976212658725,270.35274878755854,281.17120853841357,0,9.674426947852506,216.16237186624852,11.03241181280311,19.011758292918618,-0.004036550508601537,0.004940706241480814,0.13261513059291066,0.09822450472042055,0.02070348711171674,-0.024202386891668953,0.4584881463145576,0.6527953370478303,-335519013225.91516,0.0,-6554256862.852467,0.31022644580126135,-0.6233442803479596,0.295660532723028,0.6540537515165987,0.02070348711171674,-0.024202386891668953,0.4584881463145576
14.1,-74.19092931680427,21.50597433500315,270.35681252916726,281.1754025620309,0,9.677768327319374,216.34011451823014,11.032410796867708,19.01189375097224,-0.007970076062804338,0.009981223444235389,0.040637416087179336,0.07819824749772178,-0.03933525554202815,0.05040517202754593,-0.9197771450573166,0.7432590798041974,-335519013220.25134,0.0,-6554256862.849656,0.3495588580753287,-0.5331581458008775,0.25654809489068114,0.7264530757834291,-0.03933525554202815,0.05040517202754593,-0.9197771450573166
14.3,-74.19171587433956,21.506982406433167,270.38366432756,281.20150592023504,0,9.684045763949957,216.69074666367496,11.03240408391811,19.012788810918664,-0.003932787676461637,0.0050403571500900754,0.13425899196363317,0.09826456018319805,0.020186441931713397,-0.024704331470726437,0.4681078793822667,0.6602732537221002,-335519013215.5275,0.0,-6554256863.752947,0.31746867915344684,-0.6201483222255437,0.3027112270455207,0.6503811261237552,0.020186441931713397,-0.024704331470726437,0.4681078793822667
14.41,-74.19249210445717,21.5080004347184,270.3876846258338,281.20565421891706,0,9.687053398557447,216.88081797993723,11.032403078843542,19.012922820861128,-0.007056637432805799,0.009254802593035467,0.03654816612559214,0.12103777709331479,-0.02839863414858344,0.03831314039041285,-0.8882802348912866,0.7752537616616032,-55184029268.75332,0.0,2525690636350.843,0.35815928478972053,-0.5288991032889565,0.2618294499112131,0.7234866995448119,-0.02839863414858344,0.03831314039041285,-0.8882802348912866
14.6,-74.19325784003978,21.509028397409143,270.4148603689029,281.23206524123884,0,9.691885330512319,217.20444565163936,11.032396284907774,19.01382867896343,-0.004030187276863514,0.00541032995127318,0.14303022667951718,0.11885591004854704,0.015928685031275227,-0.02023406653559104,0.5604318976522384,0.8062207712821501,-55184029268.75332,0.0,2525690636350.843,0.3246487273821612,-0.6168713511697507,0.309696718930138,0.6466536029429176,0.015928685031275227,-0.02023406653559104,0.5604318976522384
14.7,-74.1940131441996,21.510066251836825,270.4394904035122,281.256026613318,0,9.694243603590284,217.37238167213866,11.032390127399122,19.014649680117074,-0.007553041598242798,0.010378544276825644,0.2463003460928812,0.13946228880901637,-0.035228543213792964,0.049682143255524815,1.032701194133644,1.124712335096778,-55184029268.75332,0.0,2525690636350.843,0.32901110145463736,-0.6135466442923061,0.31231111852865723,0.6463543731117133,-0.035228543213792964,0.049682143255524815,1.032701194133644
14.9,-74.194758080279,21.511113995114528,270.44569627825086,281.2622704653609,0,9.697932466868796,217.70326335739577,11.032388575930437,19.014856542608364,-0.003724680396999227,0.00523871638851145,0.031029373693342965,0.1575707930299618,0.019141806006217753,-0.025699139441570835,-1.0763548619976855,1.0553470253261077,-55184029268.75332,0.0,2525690636350.843,0.3556145741746727,-0.5610413707944611,0.2894976330967301,0.6891748510523503,0.019141806006217753,-0.025699139441570835,-1.0763548619976855
15.0,-74.19549248185069,21.512171584137487,270.46940564356566,281.2853427039408,0,9.699684029643766,217.86619431635535,11.032382648589108,19.015646854785523,-0.007344015716910261,0.01057589022959608,0.23709365314800918,0.1357329293867684,-0.03619335319911047,0.053371738410846484,2.0606427945466694,1.1381495638536347,-55184029268.75332,0.0,2525690636350.843,0.33649651309956274,-0.6093482585862566,0.3187184132033346,0.6433376792283201,-0.03619335319911047,0.053371738410846484,2.0606427945466694
15.2,-74.19621639271813,21.51323900558359,270.49515315177433,281.3103728235208,0,9.70237181946891,218.1870002605127,11.032376211712055,19.016505105059146,-0.003619554337177546,0.005337107230509749,0.128737541043336,0.11274200243917494,0.01862230689866364,-0.026193914995431743,-0.5417805605233678,1.031529788725202,-55184029268.75332,0.0,2525690636350.843,0.33936166358746084,-0.6089280607230176,0.32278787912619766,0.6401939262758334,0.01862230689866364,-0.026193914995431743,-0.5417805605233678
15.3,-74.19692988691594,21.514316245913918,270.49829805707833,281.313667389178,0,9.703318871113735,218.34486098772135,11.03237542548573,19.016609935235945,-0.007134941978108498,0.010772403303285064,0.03144905303997758,0.11293671207972882,-0.035153876409309025,0.05435296072775237,-0.9728848800335704,1.0196691722422042,-55184029268.75332,0.0,2525690636350.843,0.3930587474055264,-0.4904885087010473,0.26345019250751733,0.7317922109369389,-0.035153876409309025,0.05435296072775237,-0.9728848800335704
15.5,-74.19763281871019,21.515403261373226,270.5246022155759,281.33922886312035,0,9.704813550534473,218.65546287267864,11.032368849446106,19.017486740519196,-0.0035146589712553703,0.00543507729654282,0.13152079248783413,0.09147492187672941,0.018101415034265704,-0.026686630033711314,0.5003586972392845,0.7075441658868096,-55184029268.75332,0.0,2525690636350.843,0.3462100689446675,-0.6056344848844536,0.3295911779730264,0.6361722363341737,0.018101415034265704,-0.026686630033711314,0.5003586972392845
15.6,-74.19832528259877,21.516500047990508,270.5275997852747,281.3423777084413,0,9.705159438312679,218.80819022595023,11.03236810005368,19.017586659509156,-0.006924638885834635,0.010967866172819678,0.029975696987776353,0.07147229393500082,-0.03409979914579277,0.055327888762768784,-1.0154509550005812,0.7876564315352903,-55184029268.75332,0.0,2525690636350.843,0.40350324153874095,-0.4808114701317071,0.2650579677750615,0.7319492728164086,-0.03409979914579277,0.055327888762768784,-1.0154509550005812
15.8,-74.19900710331171,21.517606541579493,270.55359412610414,281.3676373376089,0,9.705451234258522,219.1084638150948,11.032361601468473,19.018453137536806,-0.0034091035647065655,0.005532467944924206,0.12997170414735068,0.0926589809935536,0.017577676605640254,-0.02717699113947722,0.499980035797869,0.7121507952103175,-55184029268.75332,0.0,2525690636350.843,0.3532490057803145,-0.6017613404189738,0.3360281234359425,0.6326006080873605,0.017577676605640254,-0.02717699113947722,0.499980035797869
15.91,-74.19967846581159,21.518722777739193,270.5564922999282,281.37068653300776,0,9.70515674847293,219.2706541433393,11.032360876925017,19.01854974333094,-0.006103295453385758,0.010147601451813404,0.026347034764223252,0.11264127859282373,-0.024492653533447328,0.04195575915353838,-0.9420424489375269,0.7785242611966926,-55184029268.75332,0.0,2525690636350.843,0.4132932246451253,-0.4728038782743701,0.2673640109676447,0.730863659508695,-0.024492653533447328,0.04195575915353838,-0.9420424489375269
16.1,-74.20033916529378,21.519848681854437,270.5830475705572,281.3964815915525,0,9.704293744548353,219.54582189342418,11.032354238107361,19.019434919018572,-0.003477365695770986,0.0059258111328680425,0.13976458225783878,0.11055144976832523,0.013820682934814494,-0.022219949047080696,0.5969344604927093,0.796316000766595,-55184029268.75332,0.0,2525690636350.843,0.35990939803186556,-0.5983645609810543,0.34265105676161545,0.6285024508070262,0.013820682934814494,-0.022219949047080696,0.5969344604927093
16.21,-74.20098924718681,21.520984249096426,270.60848900375976,281.42120369511775,0,9.703565010561551,219.70223234012272,11.032347877749059,19.02028296679199,-0.00590983539116123,0.010323338563528742,0.23128575638690105,0.13579405813178874,-0.02211336086718415,0.03997752209691566,0.8320106739005704,1.166071153392621,-55184029268.75332,0.0,2525690636350.843,0.3636696815821679,-0.5958063272128515,0.34544642870058745,0.6272367559774116,-0.02211336086718415,0.03997752209691566,0.8320106739005704
16.4,-74.20162884715268,21.52212947442326,270.6125003672751,281.4253171548589,0,9.701337766311099,219.96736217026677,11.03234687490818,19.02041667890917,-0.0033663156098160682,0.006027501720178018,0.021112439554527854,0.15564170748167677,0.013386946217606274,-0.02260966759658303,-1.1061753517493458,1.0995301546065606,-55184029268.75332,0.0,2525690636350.843,0.4097731400691925,-0.5062716032067383,0.29712852277270374,0.6982046107118054,0.013386946217606274,-0.02260966759658303,-1.1061753517493458
16.5,-74.20225772108721,21.523284272580508,270.63810133082444,281.4501886812986,0,9.700111070216082,220.1043312027646,11.032340474667294,19.021270044360815,-0.006288739345308069,0.01154798157248377,0.25600963549322475,0.1341866707843208,-0.029224237354919594,0.05520479852305673,2.348971959386936,1.200381640954919,-55184029268.75332,0.0,2525690636350.843,0.3703060346881019,-0.5921210837947896,0.3517743140350169,0.623314442945494,-0.029224237354919594,0.05520479852305673,2.348971959386936
16.71,-74.20287595512029,21.524448668101744,270.6649750661221,281.4762821589436,0,9.69661737315813,220.3861572640814,11.032333756233468,19.022165835537404,-0.0029439715861133632,0.0055447405773160355,0.12797016808414238,0.11327890341818461,0.015927465519974725,-0.028586861881750997,-0.6097117495670564,1.127143511191416,-55184029268.75332,0.0,2525690636350.843,0.3731866184522823,-0.5909678451620204,0.3553280003794003,0.6206696109357103,0.015927465519974725,-0.028586861881750997,-0.6097117495670564
16.8,-74.20348366561625,21.52562264530914,270.66760024688773,281.4790564887389,0,9.69476240686503,220.5045198979427,11.032333099938278,19.022253341562923,-0.006752338843954133,0.013044191193303512,0.029168675173549617,0.1147092682318582,-0.0423151917537864,0.08332722906652765,-1.0977943656732545,1.107754939173286,-55184029268.75332,0.0,2525690636350.843,0.44251825653689436,-0.44810557339167784,0.27262179630299954,0.7273625945203593,-0.0423151917537864,0.08332722906652765,-1.0977943656732545
17.01,-74.20408060917411,21.526806138314,270.69424834885643,281.5049289989817,0,9.690013423783132,220.775021494724,11.032326437912786,19.023141611628546,-0.002842588370792013,0.005635680975520525,0.1268957236604923,0.09165138093677173,0.018617859396010024,-0.035278620084680745,0.46536689755686794,0.7587120694305304,-55184029268.75332,0.0,2525690636350.843,0.3797891983181154,-0.5870038383193993,0.36136744800562914,0.6169280559036644,0.018617859396010024,-0.035278620084680745,0.46536689755686794
17.11,-74.2046669926279,21.527999171017363,270.6968666497905,281.5076925517464,0,9.687343775459846,220.90102607307088,11.032325783337551,19.02322888832635,-0.005863834537933724,0.011930327033624876,0.02618300934045748,0.07106800262664871,-0.03021246167141775,0.06294646058104486,-1.0071271432003697,0.8527979165056798,-55184029268.75332,0.0,2525690636350.843,0.45053054683286736,-0.44404527224365836,0.27653137730480165,0.7234475930808273,-0.03021246167141775,0.06294646058104486,-1.0071271432003697
17.3,-74.205242563047,21.52920165711054,270.7236344294899,281.5336761145019,0,9.681944023696332,221.13542212361364,11.032319091392628,19.024121147649666,-0.003029317995197412,0.00632887417461792,0.14088305104953658,0.09288563200592326,0.014918508119664697,-0.02948133083687852,0.6036844300477807,0.7583364416866921,-55184029268.75332,0.0,2525690636350.843,0.3861751520256677,-0.5832074084056077,0.36742080613649986,0.6129762001552522,0.014918508119664697,-0.02948133083687852,0.6036844300477807
17.41,-74.20580757773625,21.53041363007572,270.7260634698026,281.5362534935808,0,9.67836121181027,221.26811091169353,11.03231848413255,19.02420211566009,-0.005136497175070361,0.011017936047091444,0.02208218466121677,0.11837092079504533,-0.019156174362481456,0.042627835204304985,-1.0800078762574583,0.8903903300497017,-55184029268.75332,0.0,2525690636350.843,0.4625892725055234,-0.4290985033729028,0.2733940230617872,0.7260450037842258,-0.019156174362481456,0.042627835204304985,-1.0800078762574583
17.6,-74.20636173423647,21.531635003186558,270.75296185463577,281.56235860072036,0,9.671838252821594,221.49206935496062,11.032311759536341,19.02509872848786,-0.0029166131590248794,0.006428279530723514,0.14157044649024053,0.11687272773786499,0.011683600084449826,-0.024156086928252104,0.628885588573805,0.9218947535230633,-55184029268.75332,0.0,2525690636350.843,0.39244333373676105,-0.579396311683007,0.3733628467418532,0.6090060167900843,0.011683600084449826,-0.024156086928252104,0.628885588573805
17.7,-74.20690516032452,21.53286577950875,270.778374169965,281.5870327275056,0,9.66823268727574,221.6072705583609,11.032305406457509,19.0259458056655,-0.005434260880576974,0.01230776322191955,0.2541231532922038,0.13294648884513022,-0.025176477215521482,0.058794836911961613,1.1255270680196567,1.1652590971596575,-55184029268.75332,0.0,2525690636350.843,0.3961069486279268,-0.5765605423611389,0.37569055254655764,0.6078929469636614,-0.025176477215521482,0.058794836911961613,1.1255270680196567
17.9,-74.2074380240138,21.53410596190064,270.7825354038452,281.5912694978324,0,9.6599671980035,221.83212031178587,11.032304366149038,19.026084513461505,-0.002664318446363732,0.0062009119594464085,0.02080616940105536,0.15522403447435618,0.013849712171066259,-0.030534256312365816,-1.1665849194557463,1.038353816739323,11.966577709482896,0.0,-0.40651373146630476,0.4449652789525015,-0.49102219870283026,0.32345276038077003,0.675486056636124,0.013849712171066259,-0.030534256312365816,-1.1665849194557463
18.01,-74.20795994355423,21.535355443013803,270.80685464642,281.6148884141752,0,9.655308430259389,221.95262027996372,11.032298286338394,19.026895154880666,-0.004744723094838383,0.011358919210573712,0.22108402340718197,0.1334782894312055,-0.01891276953158722,0.04689097501024694,1.8207077636920106,1.125529621368426,3.4274985546033236,0.0,0.4016386560066906,0.4027193695727732,-0.5719292936779621,0.3809195744781318,0.6046604585908809,-0.01891276953158722,0.04689097501024694,1.8207077636920106
18.2,-74.20847112743273,21.53661425529366,270.83277208993167,281.64004221447135,0,9.64654597866023,222.15543897824057,11.032291806977517,19.02775906966439,-0.0026904414657960445,0.006625327788724183,0.1364075974298614,0.10785705735478057,0.010812008573907173,-0.02491363906236624,-0.44566539988063997,0.9964171576723142,3.4274985546033236,0.0,0.4016386560066906,0.4050951776961916,-0.5710075715578864,0.38441549320056073,0.6017250026533931,0.010812008573907173,-0.02491363906236624,-0.44566539988063997
18.3,-74.20897169437343,21.537882390980077,270.8357792287307,281.6431628288849,0,9.641546575953903,222.25947103435806,11.032291055192816,19.027859307624357,-0.005005669407012121,0.012681356864163537,0.030071387990346494,0.1099896989664372,-0.023152279412160436,0.06056029075439268,-1.0633620943951338,0.9568730419275336,3.4274985546033236,0.0,0.4016386560066906,0.47279833724299136,-0.44794942222169293,0.3047664177653082,0.6949248002726739,-0.023152279412160436,0.06056029075439268,-1.0633620943951338
18.5,-74.20946132333783,21.539159752107985,270.8610167592846,281.66765869123185,0,9.631160573543445,222.46189603116898,11.032284745810179,19.02870055864282,-0.0024481448220115085,0.0063868056395399945,0.12618765276954536,0.09239619693026839,0.012787622925003107,-0.031472756123117826,0.48058132389599606,0.6965991856533459,3.4274985546033236,0.0,0.4016386560066906,0.4113493851227894,-0.5666617059921537,0.3896562664456675,0.5982091510005408,0.012787622925003107,-0.031472756123117826,0.48058132389599606
18.6,-74.20994032352515,21.54044639050801,270.86396658018765,281.67071992856575,0,9.625582231959704,222.56027997522926,11.032284008354953,19.028798886006257,-0.0047900018731183314,0.01286638400024724,0.029498209030407032,0.07595472528783122,-0.023418570511067896,0.06479578360707153,-0.9668944373913695,0.76925876440425,3.4274985546033236,0.0,0.4016386560066906,0.481104187103551,-0.4415080837854058,0.306743554393361,0.6924722123967847,-0.023418570511067896,0.06479578360707153,-0.9668944373913695
18.8,-74.2104083343725,21.541742197807054,270.8906227921698,281.6965759089036,0,9.614058616464888,222.75136889183602,11.032277344301956,19.02968742640566,-0.0023400542367824156,0.0064790364952216585,0.13328105991064423,0.11205107384372223,0.012249738181679622,-0.03193673752512802,0.5189142544011879,0.7171254139233375,3.4274985546033236,0.0,0.4016386560066906,0.416649250472058,-0.5635924583223975,0.3956707560721893,0.5934741744949403,0.012249738181679622,-0.03193673752512802,0.5189142544011879
18.9,-74.21086572555515,21.54304725542896,270.89588279810465,281.7018544378976,0,9.607930057710307,222.8440653715732,11.032276029300473,19.029862759936822,-0.004573911826497676,0.013050576219058307,0.05260005934872082,0.17352647472759294,-0.022338575897153077,0.06571539723836789,-0.8068100056192513,1.0612705244644902,3.4274985546033236,0.0,0.4016386560066906,0.4580984614395204,-0.49809290031428427,0.3532287794004906,0.6459711229509322,-0.022338575897153077,0.06571539723836789,-0.8068100056192513
19.1,-74.21131218698673,21.54436144459512,270.9385601030191,281.74311298994877,0,9.595425463610212,223.02374177495693,11.032265359974245,19.031285336767304,-0.002232307157896653,0.006570945830794889,0.2133865245721692,0.24210890412872071,0.011708023343004947,-0.03239815194131663,0.8039323261172304,0.9259563160555511,3.4274985546033236,0.0,0.4016386560066906,0.41844376888481627,-0.5653997794252736,0.4050563305882073,0.5840866979804791,0.011708023343004947,-0.03239815194131663,0.8039323261172304
19.2,-74.2117477988195,21.545684736325114,270.981912714101,281.78501922619193,0,9.589110074511659,223.11071371301512,11.032254521821475,19.032730423803365,-0.004356118327706419,0.013232917299959296,0.4335261108190117,0.2980513410837687,-0.021238111698098115,0.06661971469164549,2.201395862468472,0.8983570503455786,3.4274985546033236,0.0,0.4016386560066906,0.4211276132327192,-0.56358679025598,0.4078119594127976,0.5819887189471716,-0.021238111698098115,0.06661971469164549,2.201395862468472
19.4,-74.21217286144449,21.54701733143737,271.05698944070764,281.85743219109565,0,9.575799922451477,223.27890573501014,11.032235752639822,19.03523298135692,-0.002125313124921043,0.006662975561280172,0.3753836330332674,0.3485881092141899,0.011154026013926921,-0.032849708693395735,-0.2907123889287227,0.842571576175175,3.4274985546033236,0.0,0.4016386560066906,0.42103395675880445,-0.5655970682635896,0.4132627916685895,0.5762327903286497,0.011154026013926921,-0.032849708693395735,-0.2907123889287227
19.5,-74.21258685549176,21.548358890549768,271.0982826943736,281.89735489801666,0,9.568902256951475,223.36011834377368,11.032225429326406,19.036609423145787,-0.004139940472782596,0.013415591123972868,0.41293253665969,0.33727378223798826,-0.020146273478615244,0.06752615562692599,0.3754890362642207,0.9833759414365035,3.4274985546033236,0.0,0.4016386560066906,0.426933814329421,-0.5592115519553669,0.41266462449571395,0.5785480671747274,-0.020146273478615244,0.06752615562692599,0.3754890362642207
19.7,-74.21299026183067,21.54970965408032,271.1596807888186,281.9566108380361,0,9.554338420270977,223.5167587098137,11.032210079802795,19.038656026293953,-0.0020170316945211726,0.006753817652764862,0.30699047222498277,0.3213117901431065,0.010614543891307154,-0.03330886735604015,-0.529710322173538,0.7405804269526344,3.4274985546033236,0.0,0.4016386560066906,0.42726576675574773,-0.5604994739349193,0.41756824285841515,0.5735164050255559,0.010614543891307154,-0.03330886735604015,-0.529710322173538
19.8,-74.2133824415699,21.55106916224781,271.1753096399552,281.9718483710391,0,9.54662900696317,223.59217950532195,11.03220617259001,19.03917698799851,-0.003921797392365478,0.013595081674892902,0.15628851136568533,0.31040172326150683,-0.019047656978442785,0.06841264022127944,-1.507019608592953,0.750123536704723,3.4274985546033236,0.0,0.4016386560066906,0.44384809221036675,-0.5389835959840941,0.4054799671806609,0.5899843646372698,-0.019047656978442785,0.06841264022127944,-1.507019608592953
20.0,-74.21376400605786,21.552437855072444,271.2460833658961,282.04011786762226,0,9.531055687310324,223.73720556134907,11.032188479158526,19.041536112196535,-0.0019078224397617372,0.006843464123171852,0.3538686297045514,0.3114665910686938,0.01006987476301874,-0.03375808775860537,0.9879005916943339,0.7718252087633052,3.4274985546033236,0.0,0.4016386560066906,0.43189754191521784,-0.5574669421177442,0.4233136115326261,0.5687712264387935,0.01006987476301874,-0.03375808775860537,0.9879005916943339
20.1,-74.21413467688272,21.55381538237654,271.2781414869612,282.0711520024616,0,9.522962541520014,223.80680437628936,11.03218046462826,19.042604716232038,-0.003706708248643001,0.013775273040969952,0.32058121065119394,0.3338266782410216,-0.017988858088812384,0.06931808917798002,-0.33287419053357,0.6800999780337269,3.4274985546033236,0.0,0.4016386560066906,0.4396196134788902,-0.5485973745255311,0.4204923863127855,0.5735518016372579,-0.017988858088812384,0.06931808917798002,-0.33287419053357
20.3,-74.2144944558727,21.555201913785154,271.36182832568534,282.15183818140105,0,9.506429765559973,223.94015811381485,11.032159542918578,19.045394277522846,-0.0017988949498715164,0.006932657043066139,0.41843419362067075,0.39515533163084593,0.009539066493857457,-0.03421307998951919,0.48926491484738577,0.459775977170039,3.4274985546033236,0.0,0.4016386560066906,0.4363634489486351,-0.5544706483290166,0.42895823172828507,0.5640426189533863,0.009539066493857457,-0.03421307998951919,0.48926491484738577
20.4,-74.21484334509614,21.556597238726773,271.40369080682416,282.192298337173,0,9.497894209975001,224.00390710958922,11.032149077298294,19.046789693560804,-0.003488892234457882,0.013953249416190102,0.4186248113882219,0.4145384283325961,-0.016899972845864013,0.07020592373124113,0.0019061776755114185,0.27653475098928765,3.4274985546033236,0.0,0.4016386560066906,0.44255909649844877,-0.5477013932241019,0.42761508475063853,0.5668421025828608,-0.016899972845864013,0.07020592373124113,0.0019061776755114185
20.51,-74.21518100686181,21.55800146643399,271.4546631573614,282.2415183295763,0,9.488348336249008,224.0717720395872,11.032136334210659,19.048488771912044,-0.003069652415180371,0.012765706429233387,0.4633850048838252,0.4058408401301957,0.003811271084340905,-0.010795845335969851,0.4069108499600193,0.3819128959668764,569987090317.498,0.0,-1004318554216.2234,0.4438198864899761,-0.5474605300301001,0.43142277808235924,0.5631920302764291,0.003811271084340905,-0.010795845335969851,0.4069108499600193
20.7,-74.21550817371899,21.55941456594417,271.54031340651494,282.3240900362878,0,9.471331260063305,224.1834088667562,11.03211492164837,19.051343780217167,-0.0017219308272400106,0.007437365843057303,0.45079078501873876,0.5301783973515665,0.007093271515475666,-0.028043897821979722,-0.06628536771098219,1.809404199054273,569987090317.498,0.0,-1004318554216.2234,0.443721581634592,-0.5488183047210125,0.4362708227393608,0.5581911819629286,0.007093271515475666,-0.028043897821979722,-0.06628536771098219
20.9,-74.21582424845762,21.560836356100143,271.5957763857436,282.3776265638397,0,9.452386930748661,224.29326263823438,11.032101055903563,19.053192546191454,-0.001580373693172993,0.0071089507798660885,0.27731489614325355,0.5171741327745415,0.0007077856703350912,-0.0016420753159560794,-0.8673794443774291,3.1680269289565617,569987090317.498,0.0,-1004318554216.2234,0.44820334537981915,-0.5443026018245426,0.43658770959242504,0.5587840465423226,0.0007077856703350912,-0.0016420753159560794,-0.8673794443774291
21.0,-74.21612931410858,21.562266855550902,271.6997844287526,282.47785410709474,0,9.443416577585273,224.3452378494807,11.032075053892811,19.05665948095842,-0.003050656509628836,0.014304994507589949,1.0400804300900142,0.48914544895775036,-0.014702828164558224,0.07196043727723758,7.6276553394674975,3.1176873960265916,569987090317.498,0.0,-1004318554216.2234,0.44792875708802365,-0.5457961388695864,0.441673819222242,0.5535256460023038,-0.014702828164558224,0.07196043727723758,7.6276553394674975
21.1,-74.21642362394364,21.563706092752255,271.7351389714996,282.5120470136512,0,9.433587048984613,224.39524216856668,11.032066215257124,19.057837965716654,-0.002943098350556242,0.014392372013531735,0.3535454274702892,0.4362885655628497,0.0010755815907259277,0.0008737750594178508,-6.865350026197152,3.3783493924783032,569987090317.498,0.0,-1004318554216.2234,0.45630409655841064,-0.5363095156087223,0.4377378849756754,0.559056543641672,0.0010755815907259277,0.0008737750594178508,-6.865350026197152
21.3,-74.2167070314758,21.565154115967562,271.7998076522006,282.5744342901789,0,9.413353756789146,224.4893293283274,11.03205004808695,19.059993588406687,-0.0014170376608291285,0.007240116076534546,0.32334340350502205,0.48952993409868484,0.0076303034486355946,-0.035761279684986075,-0.15101011982633636,3.56253403030797,569987090317.498,0.0,-1004318554216.2234,0.4545198032876811,-0.539649044700691,0.44426765699138215,0.5521022603869205,0.0076303034486355946,-0.035761279684986075,-0.15101011982633636
21.4,-74.21697948045936,21.566610703268424,271.81840581133497,282.59250605464547,0,9.402844921386642,224.53340798736608,11.032045398547165,19.0606135270445,-0.0027244898355150452,0.014565873008614316,0.18598159134342437,0.3374185100776529,-0.013074521746859446,0.07325756932079927,-1.3736181216160062,2.3009724194862193,569987090317.498,0.0,-1004318554216.2234,0.46929866992675495,-0.5219744016241247,0.43339358719936044,0.5652180827155002,-0.013074521746859446,0.07325756932079927,-1.3736181216160062
21.6,-74.21724091489004,21.568075972535365,271.9271190916509,282.69725652659025,0,9.382038112473875,224.61562566862588,11.032018220227087,19.06423730305503,-0.0013071721534174499,0.007326346334703866,0.5435664015797592,0.6095978839531351,0.007086588410487876,-0.036197633369551736,1.7879240511816488,3.7982527705009574,-1183119970287.7295,0.0,916829085338.9124,0.45706629784244796,-0.5384125822060556,0.4508513731273272,0.5458345262513261,0.007086588410487876,-0.036197633369551736,1.7879240511816488
21.8,-74.21749143900512,21.569549761458564,271.9830243381707,282.75121050235805,0,9.360038138624455,224.68991180060564,11.032004243915457,19.066100811272356,-0.0012526205753715703,0.00736894461599749,0.2795262325989266,0.7744184351213,0.00027275789022939854,0.00021299140646811778,-1.3202008449041678,4.798513789755299,955074370947.8021,0.0,1862575263082.35,0.462241483267846,-0.5330037506053117,0.4500461822748806,0.5474470264845882,0.00027275789022939854,0.00021299140646811778,-1.3202008449041678
21.9,-74.21773111728359,21.571032267538577,272.1544924981951,282.91632832382567,0,9.350226709833542,224.72407635352403,11.03196137687545,19.071816416606502,-0.00239678278475713,0.014825060800128003,1.7146816002440712,1.04304992351946,-0.01144162209385584,0.07456116184130672,14.35155367645175,4.9056978745684034,1468597575200.5945,0.0,921645476549.5938,0.4603698007377913,-0.5360604192869229,0.4563554377125439,0.5407759128444678,-0.01144162209385584,0.07456116184130672,14.35155367645175
22.01,-74.21795955444625,21.572523128087024,272.2807118213085,283.03792202539876,0,9.338622115317586,224.75936147849427,11.031929822044672,19.07602372737695,-0.002076701478741045,0.013553277713155626,1.147448391939871,1.2939787496685717,0.002909830054691604,-0.0115616644270213,-5.156665530038044,5.085229351078019,734298787600.3013,0.0,460822738274.1247,0.46332535859547164,-0.5333148743152649,0.45782192172729597,0.5397258052959822,0.002909830054691604,-0.0115616644270213,-5.156665530038044
22.21,-74.21817718545586,21.574022460227308,272.58665375938295,283.33241974328286,0,9.317787581159998,224.81734819391818,11.031853336560154,19.086221791979433,-0.001088155048023513,0.007496660701420437,1.529709690372277,1.6816487882736113,0.0049427321535876765,-0.03028308505867605,1.9113064921620373,5.263111250747011,0.025102826762851825,0.0,-1.1193157479213294,0.4638410458313366,-0.5333814909152697,0.4615497618143798,0.5360293711357479,0.0049427321535876765,-0.03028308505867605,1.9113064921620373
22.31,-74.21838383551717,21.575530280895382,272.7664734665825,283.5055926317043,0,9.307399413942523,224.84335436165958,11.031808381633354,19.092215782219416,-0.0020665006131537654,0.015078206680741212,1.7981970719955982,1.8411647794674972,-0.009783455651302732,0.07581545979320936,2.684873816233268,2.687114937112801,0.10416106108670178,0.0,-1.1142863211238694,0.4667791874944233,-0.5306058869016091,0.4628452895406175,0.535115707915087,-0.009783455651302732,0.07581545979320936,2.684873816233268
22.5,-74.21857940007716,21.577046456840442,273.18788619936754,283.9112319511942,0,9.288025255769519,224.88727439718247,11.031703028450158,19.106262873312254,-0.0010292871578306,0.007979873395052198,2.217961751500139,2.1098912724657515,0.0054590181859113605,-0.037359648872047194,2.2092877868659886,1.6960017809646732,0.15922157896325775,0.0,-0.8984025577047283,0.4677707589410148,-0.5300551708423914,0.46607692988687627,0.5319815113048707,0.0054590181859113605,-0.037359648872047194,2.2092877868659886
22.7,-74.21876380482497,21.57857096462567,273.69034931649816,284.394913693228,0,9.267613398223489,224.92572553980804,11.031577412670876,19.123011643883274,-0.0009220237390650287,0.0076225389261353185,2.512315585653093,2.441456378244366,0.0005363170938278584,-0.0017866723445844025,1.471769170764777,2.861227902801945,0.06303288971194947,0.0,-0.4831966071097831,0.4697351103913449,-0.528361075536999,0.46830170684345057,0.5299783120944928,0.0005363170938278584,-0.0017866723445844025,1.471769170764777
22.81,-74.21893733569216,21.580103940628966,273.9643728790383,284.6587942648751,0,9.256101927167604,224.94346972623535,11.03150890678024,19.132145762634607,-0.001577553338062328,0.013936145484517685,2.491123295819568,2.676156368119749,-0.005959359990884569,0.057396423258021814,-0.19265718030477627,2.539998025177676,142623672262.3188,0.0,425405619025.7734,0.47236542552105754,-0.525884278955905,0.46971347069485764,0.5288533684936964,-0.005959359990884569,0.057396423258021814,-0.19265718030477627
22.9,-74.2190998588527,21.5816452410437,274.25124855035875,284.9350619467518,0,9.24717363829193,224.9561900051043,11.03143718786241,19.14170828501196,-0.0018058128948913112,0.017125560163696252,3.187507459116058,2.5360996171974426,-0.002536217298099818,0.03543794087976192,7.737601814405459,3.552154736823309,285247344524.6074,0.0,850811238051.8298,0.4743342144669224,-0.5241410048973606,0.4717785467113432,0.5269803249023304,-0.002536217298099818,0.03543794087976192,7.737601814405459
23.1,-74.21925116072308,21.583194751879446,274.84559879614056,285.5073286557897,0,9.226466544080347,224.97866237724656,11.031288600300964,19.161519959871352,-0.0007565093518735359,0.007747554178738515,2.971751228909014,3.2427836399203684,0.005246517715088802,-0.046890029924788024,-1.0787811510352043,12.313923565726274,154840939952.69525,0.0,1691558018939.1223,0.47570530849953285,-0.5230460557891797,0.4744608466809529,0.5244179515954235,0.005246517715088802,-0.046890029924788024,-1.0787811510352043
23.3,-74.21939139796237,21.584752568962752,275.1491332843781,285.7996941042655,0,9.20226010777742,224.99313866120556,11.031212716678905,19.171637776145936,-0.0007011861964656443,0.007789085416529701,1.5176724411875906,3.301081209804898,0.00027661577703945873,0.00020765618895593113,-7.270393938607144,15.536797811679426,154840939952.69525,0.0,1691558018939.1223,0.47828648874701535,-0.5205871979374509,0.47582822329016067,0.5232767011306863,0.00027661577703945873,0.00020765618895593113,-7.270393938607144
23.4,-74.21952071747238,21.586318647937862,275.7537059853818,286.38193513728135,0,9.19446664599207,224.9973774103485,11.031061573503655,19.191790199512727,-0.0012931951000894335,0.015660789751095527,6.045727010037596,3.112297118577129,-0.005920089036238018,0.07871704334565995,45.28054568850102,15.067502798327833,154840939952.69525,0.0,1691558018939.1223,0.47960662217828337,-0.51949065165651,0.4783616456767497,0.5208426698626598,-0.005920089036238018,0.07871704334565995,45.28054568850102
23.6,-74.21963875639756,21.587892814267494,276.31023387178107,286.9179974061732,0,9.171923870258162,224.99985518102872,11.030922441532054,19.210341129059366,-0.000590194625900145,0.007870831648162269,2.7826394319961483,3.0800198381560433,0.0035150023709463927,-0.03894979051466574,-16.315437890207008,15.98504509072735,154840939952.69525,0.0,1691558018939.1223,0.48162466374081,-0.5176211300533778,0.48026047776280595,0.5190914394380409,0.0035150023709463927,-0.03894979051466574,-16.315437890207008
23.7,-74.21974616212526,21.589475103233617,276.53459161852595,287.1342134215781,0,9.159901392705136,224.9980940924433,11.030866352095368,19.21781972061753,-0.0010740572770373776,0.01582288966123036,2.2435774674489064,3.311821115024137,-0.004838626511372429,0.0795205801306826,-5.390619645472533,14.664844302361042,154840939952.69525,0.0,1691558018939.1223,0.48447542310259056,-0.5148244436152589,0.48106288845694617,0.5184764739265078,-0.004838626511372429,0.0795205801306826,-5.390619645472533
23.8,-74.21984241228563,21.59106572993818,276.81562460289035,287.4050263153853,0,9.148306213142776,224.99433309597197,11.030796093849277,19.22718748676301,-0.0009625016036807074,0.015906267045622032,2.8103298436439728,2.642373418047037,0.001115556733566687,0.0008337738439167262,5.667523761950583,5.655172086566367,154840939952.69525,0.0,1691558018939.1223,0.4860368674582591,-0.5134169092410072,0.4832887150874944,0.5163363812921309,0.001115556733566687,0.0008337738439167262,5.667523761950583
24.0,-74.21992776475177,21.59266426930389,277.3509620044733,287.92081715718064,0,9.124435981147034,224.98081213686774,11.03066225949888,19.245032066815778,-0.0004267623307185901,0.007992696828544893,2.676687007914618,2.7626454059574383,0.0026786963648105957,-0.03956785108538584,-0.6682141786467756,3.0776617958711943,154840939952.69525,0.0,1691558018939.1223,0.48721472656595516,-0.5123886144214151,0.4857599894264351,0.5139230980419088,0.0026786963648105957,-0.03956785108538584,-0.6682141786467756
24.1,-74.22000197763974,21.59427106607502,277.6208081052008,288.18090556006774,0,9.11231926788499,224.9710527751641,11.0305947979737,19.254026936840027,-0.00074212887966495,0.016067967711314905,2.698461007275303,2.8607114531770885,-0.0031536654894635543,0.08075270882769897,0.21773999360684607,3.29969325411654,154840939952.69525,0.0,1691558018939.1223,0.48978261795066624,-0.5098779068974778,0.48687180297271526,0.5129262663203517,-0.0031536654894635543,0.08075270882769897,0.21773999360684607
24.3,-74.22006450930857,21.59588574481815,278.29760828932797,288.8330989281343,0,9.089057586037809,224.94553845617358,11.030425597927668,19.2765869429776,-0.0003126583441570585,0.008073393715655216,3.384000920635811,2.9586458782852945,0.0021473526775394654,-0.03997286997829859,3.427699566802552,2.7323676428240216,154840939952.69525,0.0,1691558018939.1223,0.49081492131183,-0.508973984205524,0.4896444787956165,0.5101906318275415,0.0021473526775394654,-0.03997286997829859,3.427699566802552
24.4,-74.22011662836036,21.597508579922962,278.57099984343995,289.0966621096845,0,9.07657999510314,224.9297846328522,11.03035725003914,19.285699994781332,-0.0005211905178725939,0.0162283510481135,2.7339155411198717,3.044785161245586,-0.0020853217371553986,0.0815495733245846,-6.500853795159532,2.9490266575463258,154840939952.69525,0.0,1691558018939.1223,0.493368208990743,-0.506450878775712,0.49044679720908874,0.5094676210044389,-0.0020853217371553986,0.0815495733245846,-6.500853795159532
24.6,-74.22015706364026,21.599139605603018,279.2310072564529,289.7328251332718,0,9.052371332556314,224.8922871593628,11.030192248185886,19.307700241881765,-0.00020217639949748613,0.008155128400275541,3.3000370650648376,3.0941179302434514,0.0015950705918755163,-0.040366113239189226,2.8306076197247894,3.073438431561798,5983153250.10357,0.0,-7184533228.191179,0.49437511190834965,-0.505532013205351,0.4931545357318262,0.5067832241079796,0.0015950705918755163,-0.040366113239189226,2.8306076197247894
24.71,-74.22018687423655,21.60077837589656,279.57281681961564,290.06238927262797,0,9.03862899354893,224.8682612775204,11.030106795795096,19.319093893987187,-0.0002710054208033743,0.01489791175947767,3.107359665115584,2.7483324984210595,-0.0006257183755080775,0.06129803053820149,-1.7516127268114043,3.6779491355407017,4753532449.145903,0.0,783706095839.4833,0.49661859030478667,-0.5033153775120409,0.49424291992132985,0.5057346563478088,-0.0006257183755080775,0.06129803053820149,-1.7516127268114043
24.9,-74.22020559948058,21.602425214667292,280.13239722650997,290.6018989446828,0,9.014231019021729,224.82107954624416,11.029966900693372,19.337746574217,-9.855391596147574e-05,0.008667572477537038,2.945160036285965,3.413525277966481,0.0009076394991678979,-0.0327912593786353,-0.8536822569980063,11.18737608311011,113715351511.57089,0.0,-743970892479.8042,0.49788051300187,-0.5020938790117875,0.49641731799200967,0.5035738057420296,0.0009076394991678979,-0.0327912593786353,-0.8536822569980063
25.1,-74.22021331894685,21.60407968560519,280.4634097730513,290.92112426858665,0,8.985495933958338,224.76364584287256,11.029884147556738,19.348780325768374,-3.859733133992849e-05,0.008272354689484611,1.65506273270663,3.31442505891824,0.000299782923107732,-0.0019760889402621064,-6.450486517896582,13.876578653000937,235026395991.5192,0.0,-19133682812.00752,0.5000772722371796,-0.49991105364282645,0.4975839993168365,0.5024159868688529,0.000299782923107732,-0.0019760889402621064,-6.450486517896582
25.2,-74.22020955245303,21.605742332227287,281.0694002574889,291.5054980079126,0,8.975355301623052,224.7319440989134,11.029732649935628,19.368980008582962,3.766493819057439e-05,0.01662646622097732,6.059904844376107,3.3781035301599536,0.000762622695305045,0.08354111531492886,44.048421116695714,14.76858206658171,235026395991.5192,0.0,-19133682812.00752,0.5012522446545302,-0.49874772674576034,0.49987884984572006,0.500118013844384,0.000762622695305045,0.08354111531492886,44.048421116695714
25.4,-74.22019527005988,21.607412787878488,281.6303069804064,292.0464817168485,0,8.94821553070147,224.66257787119167,11.029592423254899,19.38767689934688,7.141196576299106e-05,0.008352278256005293,2.8045336145874087,3.077461011539759,0.00016873513786208393,-0.04137093982486028,-16.27685614894355,16.581548276047155,235026395991.5192,0.0,-19133682812.00752,0.5028800500527605,-0.4971160696708496,0.5013845811482995,0.4985988069788018,0.00016873513786208393,-0.04137093982486028,-16.27685614894355
25.5,-74.22016986207133,21.60909074573239,281.9728816447214,292.37696968167666,0,8.935096251230048,224.6249164703611,11.02950677958882,19.39909605482405,0.00025407988545111585,0.016779578539036537,3.4257466431500427,3.9663665675302555,0.0018266791968812217,0.08427300283031125,6.212130285626253,24.606770668333752,235026395991.5192,0.0,-19133682812.00752,0.505003272807543,-0.4949836137475708,0.5025355023630429,0.4974142995931963,0.0018266791968812217,0.08427300283031125,6.212130285626253
25.7,-74.22013381903447,21.61077643879206,282.2612687556854,292.6552199465646,0,8.904557128310831,224.54364546385537,11.029434682811079,19.408708958522848,0.00018021518428668125,0.00842846529833355,1.4419355548201958,3.3264447910387305,-0.0003693235058221743,-0.04175556620351509,-9.91905544164927,18.882111004231227,235026395991.5192,0.0,-19133682812.00752,0.5067909592005533,-0.4931788857254019,0.5038366268753284,0.496070724560647,-0.0003693235058221743,-0.04175556620351509,-9.91905544164927
25.8,-74.22008627173946,21.612470179890867,282.8712275208833,293.2436724511416,0,8.893782090320075,224.50003947021156,11.029282193119778,19.429040917362776,0.0004754729501144016,0.01693741098808464,6.099587651978508,3.3984830010085574,0.0029525776582771616,0.08508945689750967,46.57652097158246,16.30354631736176,235026395991.5192,0.0,-19133682812.00752,0.5076704500649908,-0.49224962143992423,0.5062621478620601,0.4936189440906362,0.0029525776582771616,0.08508945689750967,46.57652097158246
26.01,-74.2200278012196,21.61417160169333,283.47189205023255,293.82324367445807,0,8.864007371422817,224.40203165560322,11.029132026987442,19.449063068341083,0.0002784310469548591,0.008102008583152452,2.860307282615578,3.3472325598708053,-0.0009382947769501986,-0.04207334478539119,-15.42514461601389,15.071290788591742,235026395991.5192,0.0,-19133682812.00752,0.5092339776062496,-0.49064185245752534,0.507792732658727,0.49203441884419863,-0.0009382947769501986,-0.04207334478539119,-15.42514461601389
26.1,-74.2199587687513,21.615880256695892,283.7567132559826,294.09814837354025,0,8.851380837055933,224.3573630475999,11.029060821686004,19.45855710853275,0.0007670274255941788,0.018985055584034693,3.164680063889596,3.6303031330390945,0.005428848651548006,0.1209227444542473,3.3819197919335364,13.399768110842814,4071100630.934943,0.0,693193899989.6073,0.5115209932069853,-0.4883312983451839,0.5084590721093452,0.4912720107585512,0.005428848651548006,0.1209227444542473,3.3819197919335364
26.2,-74.21987860585394,21.617596607227796,284.07366215271367,294.40406993143733,0,8.837259906350814,224.30585847190287,11.028981584461821,19.469122071757123,0.0008016289736190345,0.01716350531904035,3.169488967310553,3.041794686431046,0.00034601548024856474,-0.01821550264994383,0.04808903420956959,4.684144019347043,4071100630.934943,0.0,693193899989.6073,0.5129153303613561,-0.48687197733062976,0.510142285984666,0.4895185283733427,0.00034601548024856474,-0.01821550264994383,0.04808903420956959
26.4,-74.21978769428999,21.619320815451875,284.6451221573353,294.9556195190579,0,8.80809645155065,224.19694427119282,11.028838719460666,19.488170738577843,0.00045455781972236927,0.008621041120395776,2.8573000231082903,3.063559769930779,-0.0017353557694833326,-0.042712320993223016,-1.560944721011318,1.7871915993357224,4071100630.934943,0.0,693193899989.6073,0.513768887519358,-0.485922908594549,0.5122189366103495,0.48739328893399575,-0.0017353557694833326,-0.042712320993223016,-1.560944721011318
26.5,-74.21968545606491,21.621052093365396,284.9608242890851,295.26039860153287,0,8.793669325470615,224.13953948679304,11.028759793927728,19.498694142969505,0.0010223822508237245,0.017312779135209875,3.157021317497834,2.7219140616809274,0.005678244311013472,0.08691738014813975,2.997212943895395,2.6230236794616872,4071100630.934943,0.0,693193899989.6073,0.5159380107772501,-0.48370434003280816,0.513111515748876,0.48636884447354417,0.005678244311013472,0.08691738014813975,2.997212943895395
26.7,-74.21957254342706,21.622791162800922,285.55465056952715,295.8336500604417,0,8.764157845355884,224.018847306362,11.028611337357617,19.518488352317572,0.0005645631892292632,0.008695347177631905,2.969131402210234,3.2596561386632628,-0.0022890953079723144,-0.04308715978789,-0.939449576438004,11.41623102989129,4071100630.934943,0.0,693193899989.6073,0.516699986545049,-0.4828210803262471,0.5151858268412494,0.484240118245938,-0.0022890953079723144,-0.04308715978789,-0.939449576438004
26.9,-74.2194488188677,21.624537215427136,285.84594702254924,296.1149314404391,0,8.731257634545745,223.89032966901024,11.028538513244362,19.528198234084975,0.0006186227967930357,0.008730263131067093,1.4564822651104288,3.270211209600867,0.00027029803781886336,0.00017457976717594255,-7.563245685499053,17.000294499792012,4071100630.934943,0.0,693193899989.6073,0.5189210148936196,-0.48055524684764855,0.5158121334227628,0.4834516294758237,0.00027029803781886336,0.00017457976717594255,-7.563245685499053
27.0,-74.21931432512093,21.626291042749674,286.4317689743622,296.6805712562574,0,8.719077450211282,223.82314338951878,11.02839205775641,19.54772563247874,0.001344937467706567,0.017538273225383455,5.858219518129802,3.2226088552992183,0.0072631467091352105,0.08808010094316236,44.01737253019311,16.41318624151073,4071100630.934943,0.0,693193899989.6073,0.5195415059680955,-0.47978267339825326,0.5179838835436816,0.481225421473382,0.0072631467091352105,0.08808010094316236,44.01737253019311
27.1,-74.21916875516365,21.628051736112,286.7227724534966,296.9616235745403,0,8.703863605886283,223.75400942197925,11.028319306886626,19.557425748449887,0.001455699572829851,0.017606933623248472,2.910034791343564,3.210830198962578,0.0011076210512328234,0.000686603978650159,-29.481847267861962,16.25027403369064,4071100630.934943,0.0,693193899989.6073,0.5217680697468909,-0.4775020355920087,0.5186099978278604,0.48040978086533365,0.0011076210512328234,0.000686603978650159,-29.481847267861962
27.3,-74.21901254221542,21.62982009669623,287.3065811908001,297.5254317460993,0,8.673204767092841,223.60991079962054,11.0281733547023,19.57688603969334,0.0007810647411332667,0.008841802921146811,2.9190436865175786,3.4957879268592755,-0.003373174158482934,-0.04382565351050846,0.045044475870073146,14.76786878186734,4071100630.934943,0.0,693193899989.6073,0.5223273437497937,-0.4767682174090407,0.5207414644245445,0.47822017948730633,-0.003373174158482934,-0.04382565351050846,0.045044475870073146
27.4,-74.21884511973846,21.631595235524006,287.5976008194355,297.8065527829041,0,8.65774556599126,223.5349525491609,11.02810059979514,19.586586693981186,0.0016742247696300086,0.0177513882777806,2.9101962863541697,2.903416156424661,0.00893160028496761,0.0890958535663398,-0.08847400163409092,5.979466488496728,4071100630.934943,0.0,693193899989.6073,0.5245475198906595,-0.47448660893807576,0.5213435716357878,0.4774025949123484,0.00893160028496761,0.0890958535663398,-0.08847400163409092
27.6,-74.21866735143755,21.63337787345737,288.1738574748772,298.3631776100898,0,8.626536653598883,223.37923482686017,11.027956535631281,19.605795249162572,0.0008888415045760085,0.008913189666816963,2.88128327720837,2.8925655617311934,-0.003926916325269945,-0.04419099305481756,-0.14456504572899725,0.1662921735318807,4419693754.3375,0.0,297152521115.25977,0.5250350381357829,-0.47380634442479297,0.5234053345095219,0.4752816139085826,-0.003926916325269945,-0.04419099305481756,-0.14456504572899725
27.8,-74.21847881125994,21.6351673311996,288.75313209490827,298.9227899594241,0,8.595060011551368,223.2158053548394,11.027811716976272,19.625104403163608,0.0009427008880180699,0.008947288711151944,2.8963731001553685,2.889074031299333,0.00026929691721030785,0.00017049522167490613,0.07544911473499365,0.24523408215460324,11575718603.5125,0.0,630767987587.0598,0.5263585591749735,-0.47234458244308336,0.524726105416967,0.473814074204067,0.00026929691721030785,0.00017049522167490613,0.07544911473499365
27.9,-74.2182786833953,21.636963699296075,289.0387099196172,299.1987415094646,0,8.579174033712953,223.13120773855115,11.027740322520096,19.63462366398724,0.002001278646446323,0.017963680964748034,2.8557782470892943,2.877205230245156,0.010585777584282757,0.09016392253596282,-0.4059485306607511,0.2715088718427758,11575718603.5125,0.0,630767987587.0598,0.5286189060007087,-0.470013229936508,0.5252837546732225,0.47299745557419987,0.010585777584282757,0.09016392253596282,-0.4059485306607511
28.0,-74.21806750227556,21.638767108135177,289.3288641913941,299.4791302244859,0,8.56326494222575,223.0446931867965,11.02766778395215,19.64429547304647,0.0021118111973805454,0.018034088391018797,2.9015427177688067,2.5826178509252067,0.0011053255093422072,0.0007040742627076224,0.45764470679511743,1.6838267931228388,11575718603.5125,0.0,630767987587.0598,0.5299273203741195,-0.4685519606020071,0.5266215096293262,0.47149324590374564,0.0011053255093422072,0.0007040742627076224,0.45764470679511743
28.2,-74.21784631257489,21.64057741794912,289.89904265492737,300.03009554793437,0,8.531146354983381,222.8659287422218,11.027525239336267,19.663301421830912,0.0011059485033371214,0.009051549069720754,2.850892317666488,3.108538743057396,-0.005029313470217138,-0.044912696606490374,-0.25325200051159324,9.90401834805341,11575718603.5125,0.0,630767987587.0598,0.5302989523045787,-0.46794976815497435,0.528605451038201,0.46944894589408986,-0.005029313470217138,-0.044912696606490374,-0.25325200051159324
28.4,-74.21761334920957,21.642394668814873,290.1807087571993,300.30233284655657,0,8.495889790185657,222.67954380099016,11.0274548228107,19.672690291906644,0.0011648168266020816,0.009086254328760679,1.4083305113595708,3.0464978373587615,0.0002943416163248024,0.00017352629519962255,-7.212809031534613,12.801184033230921,11575718603.5125,0.0,630767987587.0598,0.53256136638231,-0.4656092004599222,0.5291085393122146,0.46864764707717643,0.0002943416163248024,0.00017352629519962255,-7.212809031534613
28.5,-74.21737036733775,21.644218480655002,290.73330484748254,300.83640870981714,0,8.482289073159915,222.58350394593364,11.027316673788128,19.69111016158275,0.0024298187182125383,0.018238118401292264,5.525960902832516,2.93524207774744,0.012650018916104388,0.09151864072531456,41.17630391472886,13.110822587506359,11575718603.5125,0.0,630767987587.0598,0.5328766105430955,-0.46504018275536846,0.5311052958356334,0.4665911605402528,0.012650018916104388,0.09151864072531456,41.17630391472886
28.7,-74.21711631235964,21.646048873238588,291.2424276773347,301.32853078481054,0,8.448956378632584,222.3857508088605,11.027189393080667,19.708080922577825,0.0012702748905724138,0.009151962917926004,2.5456141492608797,2.8081875424494718,-0.0057977191382006426,-0.045430777416831464,-14.901733767858234,13.318755159062732,11575718603.5125,0.0,630767987587.0598,0.5342304650839499,-0.46351624693269267,0.5322949124787537,0.4652017037316756,-0.0057977191382006426,-0.045430777416831464,-14.901733767858234
28.8,-74.21685040991709,21.647886486182067,291.47695240059505,301.5552779422463,0,8.432008223328172,222.28404631583962,11.027130761899851,19.715898413353166,0.0026590244254975537,0.01837612943479146,2.3452472326033225,2.9331789724484993,0.0138874953492512,0.09224166516865326,-2.003669166575544,12.058689736211736,11575718603.5125,0.0,630767987587.0598,0.5367166434989167,-0.4609795258200576,0.5324842346527674,0.464643585140512,0.0138874953492512,0.09224166516865326,-2.003669166575544
28.9,-74.21657349589358,21.649730848950192,291.69850797337904,301.76949842752305,0,8.414878653080097,222.1804625388317,11.027075373006655,19.723283599112634,0.0027691402350172346,0.01844362768125091,2.215555727839889,2.021515160499029,0.0011011580951968327,0.0006749824645945068,-1.2969150476343627,4.889077383155081,11575718603.5125,0.0,630767987587.0598,0.5380854989016076,-0.4594441261237467,0.5335750077469338,0.46332796370395596,0.0011011580951968327,0.0006749824645945068,-1.2969150476343627
29.1,-74.21628615641417,21.651580970856834,292.1051671540734,302.16266607160037,0,8.380107565583263,221.96767563099903,11.02697370821148,19.736838905135777,0.001436697397068067,0.009250609533211086,2.0332959034717812,2.2349164135633983,-0.006662214189745743,-0.045965090740198465,-0.9112991218405256,7.198672659156053,377577961858.1375,0.0,1824419573684.0598,0.5382330310804306,-0.4589754821972054,0.5357606536699899,0.4610935186867411,-0.006662214189745743,-0.045965090740198465,-0.9112991218405256
29.3,-74.21598698784523,21.653438491065987,292.2986925033311,302.3498135640624,0,8.34302152353511,221.74742791358565,11.026925326874167,19.74328975011104,0.0014958428447187143,0.009287601045766569,0.9676267462884914,2.1312084689685333,0.00029572723825323737,0.00018495756277741335,-5.328345785916468,8.58336096644523,377577961858.1375,0.0,1824419573684.0598,0.5408965479733109,-0.4562935809364046,0.5356635013294523,0.4607512406171692,0.00029572723825323737,0.00018495756277741335,-5.328345785916468
29.4,-74.21567727679435,21.655301708592553,292.659951284066,302.69913434189954,0,8.3270594822842,221.63451843546756,11.026835012178983,19.755331709468866,0.0030971105087474575,0.018632175265658586,3.612587807348936,2.100765321978151,0.016012676640287774,0.09344574219892217,26.44961061060501,8.797513701533529,377577961858.1375,0.0,1824419573684.0598,0.5408464310934512,-0.4559756435491622,0.5380260955601048,0.45836587019514563,0.016012676640287774,0.09344574219892217,26.44961061060501
29.6,-74.21535593011023,21.657171202303346,293.0253025614475,303.0524378082887,0,8.291445561402941,221.40315333108774,11.026743674359638,19.767510085381584,0.0016067334205871248,0.009347468553961713,1.8267563869076493,1.8598512694621614,-0.007451885440801558,-0.04642353355848371,-8.929157102206307,9.849692326266458,377577961858.1375,0.0,1824419573684.0598,0.5420970312336642,-0.45450036357921764,0.5392897597923609,0.4568662640391654,-0.007451885440801558,-0.04642353355848371,-8.929157102206307
29.7,-74.2150233748825,21.659048450917936,293.23163560289436,303.2520011354949,0,8.273820013931235,221.28470798768143,11.026692091099276,19.77438785342981,0.003325552277289105,0.018772486145906386,2.06333041446844,2.385212015130354,0.01718818856702017,0.09425017591944874,2.365740275607959,14.315522678759683,377577961858.1375,0.0,1824419573684.0598,0.5443540881273016,-0.45219958245116104,0.539347598485082,0.45639712135207894,0.01718818856702017,0.09425017591944874,2.365740275607959
29.9,-74.21467978844156,21.6609323930096,293.39737397806874,303.4123164037053,0,8.235999163953377,221.04231803929207,11.026650656505483,19.779912465935624,0.0017179322047411521,0.009419710458313834,0.8286918758719283,2.054111901047059,-0.008038100362739794,-0.046763878437962925,-6.173192692982581,10.662906534460806,377577961858.1375,0.0,1824419573684.0598,0.5461326630056227,-0.4503060934107601,0.5398588516020165,0.45553919368423024,-0.008038100362739794,-0.046763878437962925,-6.173192692982581
30.0,-74.21432452835843,21.662821437006187,293.7568164588709,303.7599562382489,0,8.219808180708444,220.91838420715567,11.026560795885281,19.791893881962363,0.0035526008312558085,0.018890439965879312,3.5944248080215346,2.0217975485108393,0.0183466862651463,0.09470729507565344,27.65732932149567,9.461409223183107,377577961858.1375,0.0,1824419573684.0598,0.5457012248146844,-0.45022699638540054,0.5427908282436605,0.452641073850015,0.0183466862651463,0.09470729507565344,27.65732932149567
30.2,-74.21395778244454,21.664717061191094,294.1482390194317,304.13855068588174,0,8.184068900255577,220.6650663675043,11.02646294024514,19.804941300647723,0.0018337295694692622,0.009478120924537625,1.9571128028039266,1.9359909988594688,-0.008594356308932762,-0.047061595206708606,-8.186560026088069,9.049527186995299,377577961858.1375,0.0,1824419573684.0598,0.5467671065974725,-0.448903334467075,0.5440767128845674,0.45112310730452887,-0.008594356308932762,-0.047061595206708606,-8.186560026088069
30.3,-74.21358055875166,21.666620633704134,294.31474863610697,304.2996372882656,0,8.165869863734368,220.53569361851822,11.026421312840974,19.810491621203564,0.0037722369287961927,0.01903572513040048,1.6650961667528226,2.0434052344569276,0.01938507359326903,0.09557604205862717,-2.9201663605109993,8.083513840592579,377577961858.1375,0.0,1824419573684.0598,0.5496146887217428,-0.44615732144447073,0.5432465204025442,0.4513873686018751,0.01938507359326903,0.09557604205862717,-2.9201663605109993
30.4,-74.21319231557159,21.668530702542498,294.4781755874701,304.45774589226653,0,8.147617728507905,220.40451928982168,11.026380456103132,19.815939186249004,0.0038824318006903387,0.019100688383631288,1.6342695136313872,1.4443166715873947,0.001101948718941483,0.0006496325323081045,-0.30826653121436054,4.086286900019968,377577961858.1375,0.0,1824419573684.0598,0.5507924892318765,-0.44476439610404284,0.5442625827461737,0.45010055186194103,0.001101948718941483,0.0006496325323081045,-0.30826653121436054
30.6,-74.2127921014361,21.670445885561644,294.7513322543057,304.7219955993629,0,8.110517626063595,220.13678929290208,11.026312166936423,19.825044408476856,0.0020010706774797596,0.009575915095734053,1.3657833341778576,1.1652617991879262,-0.009406805616052762,-0.04762386643948549,-1.3424308972676289,2.485447422118274,377577961858.1375,0.0,1824419573684.0598,0.550721879967758,-0.4443399201659549,0.5467913250328258,0.4475340133895276,-0.009406805616052762,-0.04762386643948549,-1.3424308972676289
30.7,-74.21238187511662,21.672368710476267,294.81120331960204,304.779944864902,0,8.091175055477708,220.00024552374597,11.026297199170099,19.827040110653403,0.004102263194738586,0.019228249146224084,0.5987106529636449,0.8434002228881882,0.021011925172588708,0.09652334050490237,-7.6707268121422905,2.407857784655989,377577961858.1375,0.0,1824419573684.0598,0.5586410521040763,-0.43742913004171163,0.5405970482134922,0.4520296036299626,0.021011925172588708,0.09652334050490237,-7.6707268121422905
30.91,-74.2119597456242,21.674297654861203,294.92917786854395,304.8940965422796,0,8.050433925457158,219.70772426727808,11.026267705532863,19.83097259561813,0.0020101404400986044,0.009185449452075964,0.561783566390007,0.5641175412916883,-0.009962489307809394,-0.047822855686419426,-0.1758432693982748,2.710997778646152,377577961858.1375,0.0,1824419573684.0598,0.555448736337687,-0.43961974583190916,0.546229735673142,0.44703943477282143,-0.009962489307809394,-0.047822855686419426,-0.1758432693982748
31.11,-74.21152775220912,21.67623353615236,294.9401807885052,304.90477233914663,0,8.010577571516478,219.42189622015724,11.026264954802873,19.83133935961684,0.0021599670753858014,0.009679406455784835,0.055014599806213677,0.34123740462608915,0.0007491331764359878,0.002469785018544366,-2.5338448329189758,2.472325608681245,6.908960772561843,0.0,0.506582334533628,0.5987159567305719,-0.4010718785080019,0.5004360081300304,0.47983784051816775,0.0007491331764359878,0.002469785018544366,-2.5338448329189758
31.21,-74.2110832443609,21.67817572164769,294.9638944690409,304.9277409801601,0,7.990821341109457,219.27635088452203,11.02625902638274,19.832129815634694,0.004445078482149193,0.019421854953307338,0.23713680535706436,0.28103711852062424,0.02285111406763359,0.09742448497522364,1.8212220555084808,0.9870225028361551,6.288982425501652,0.0,0.4994737203725276,0.5756527719278055,-0.4218570516310406,0.5293151662821405,0.4587874986360344,0.02285111406763359,0.09742448497522364,1.8212220555084808
31.3,-74.2106293918079,21.680124678508093,294.9864334018795,304.9495715884274,0,7.973049121891111,219.1438674006834,11.02625339164953,19.832881113395985,0.005042806144533398,0.02165507622669973,0.25043258709539906,0.23255996936625972,0.006641418470935621,0.024813569704359956,0.14773090820371917,0.9971123604932158,6.288982425501652,0.0,0.4994737203725276,0.5777748392861056,-0.4197677654894627,0.5287502320480162,0.4586877480956595,0.006641418470935621,0.024813569704359956,0.14773090820371917
31.5,-74.2101622745172,21.68208004375839,295.04600588091466,305.0072234654695,0,7.933645564074849,218.8444214991993,11.026238498529771,19.834866862697154,0.0023355864534835374,0.009776826251481942,0.2978623951759129,0.39833147587404605,-0.01353609845524935,-0.05939124987608915,0.23714904040257,1.0562949114314868,6.288982425501652,0.0,0.4994737203725276,0.5643395325628883,-0.43062656792057313,0.5456160859188669,0.4454040163427185,-0.01353609845524935,-0.05939124987608915,0.23714904040257
31.6,-74.2096864226944,21.684041644288254,295.077889702197,305.0380897725525,0,7.913966283155863,218.6921055835275,11.02623052757445,19.8359296567399,0.004758518227987384,0.019616005298636885,0.3188382128234889,0.37289327384065907,0.02422931774503812,0.09839179047154803,0.20975817647575704,1.6865138786577916,6.288982425501652,0.0,0.4994737203725276,0.5731104034006675,-0.42307426483092186,0.5379754109344611,0.4507051022360373,0.02422931774503812,0.09839179047154803,0.20975817647575704
31.8,-74.20919794678329,21.686009586853167,295.2548298639261,305.20927677526754,0,7.87575248962879,218.38232166987942,11.026186292534017,19.841827662130868,0.0024423795555606007,0.00983971282456867,0.8847008086453942,0.356863676258781,-0.011580693362133958,-0.048881462370341244,2.829312979109537,2.217614255233694,6.288982425501652,0.0,0.4994737203725276,0.5601619206479007,-0.43312685686385444,0.55377947847155,0.43811874844963145,-0.011580693362133958,-0.048881462370341244,2.829312979109537
32.0,-74.20869836746579,21.68798470807537,295.23276746644075,305.18795287492054,0,7.835579387809247,218.06571433346755,11.02619180813339,19.84109224888136,0.002497896587527757,0.009875606111009495,-0.11031198742671261,0.3096463668378898,0.00027758515983578134,0.0001794664322041235,-4.975063980360552,2.6256259039221646,6.288982425501652,0.0,0.4994737203725276,0.5830338942904761,0.41393897492863774,-0.5316749996910138,0.45392477113181523,0.00027758515983578134,0.0001794664322041235,-4.975063980360552
32.1,-74.20819045566152,21.689964744444833,295.24977201221134,305.2044199787771,0,7.815789707880017,217.90486942364905,11.026187556996947,19.84165906707371,0.005079118042630099,0.019800363694635056,0.17004545770589388,0.2568906062018152,0.025812214551023054,0.0992475758362542,2.8035744513260252,2.6873927126592716,6.288982425501652,0.0,0.4994737203725276,0.591075238369112,-0.4067651641043827,0.5242766195887661,0.4585915284985192,0.025812214551023054,0.0992475758362542,2.8035744513260252
32.2,-74.20767132252774,21.691950842320175,295.24392750582984,305.19878103217525,0,7.795785208116568,217.74233985920674,11.026189018123542,19.841464250194328,0.0051913313377837484,0.019860978753420685,-0.058445063814928366,0.1369302614214663,0.0011221329515364808,0.0006061505878562826,-2.28490521520819,2.4788889031804753,6.288982425501652,0.0,0.4994737203725276,0.6457717576694331,0.35338549264152913,-0.4576270605807924,0.49867324372901617,0.0011221329515364808,0.0006061505878562826,-2.28490521520819
32.41,-74.20714035945896,21.69394375792969,295.25544075400126,305.20993131112266,0,7.754066994823455,217.39557644805382,11.0261861398115,19.841848025133373,0.002528395565634874,0.009490074331031918,0.05482499129243642,0.2501093269548343,-0.012680646534042637,-0.04938525915423369,0.5393812147969913,2.26734280211481,6.288982425501652,0.0,0.4994737203725276,0.6081054065696939,-0.39103107311946045,0.508851891251693,0.4673031854431613,-0.012680646534042637,-0.04938525915423369,0.5393812147969913
32.6,-74.20660037808673,21.695941787372256,295.20133846553375,305.1576046267842,0,7.715751672871702,217.07552064172225,11.026199665383617,19.84004461551779,0.002842007222251356,0.010515944434548842,-0.2847488866710687,0.22010715345403323,0.0016505876664024938,0.0053993163342994635,-1.7872309366499812,3.0508086922982427,6.288982425501652,0.0,0.4994737203725276,0.5720791145900718,0.42155926461854937,-0.5506123990253847,0.43799458798439284,0.0016505876664024938,0.0053993163342994635,-1.7872309366499812
32.7,-74.20604850027948,21.697946406618335,295.1337027513293,305.0921844492256,0,7.6952274989805325,216.90467764296184,11.026216574312167,19.837790091710975,0.005518778072541785,0.020046192460796135,-0.6763571420446982,0.24362068113663948,0.026767708502903914,0.09530248026247157,-3.91608255373624,2.7692622580861124,6.288982425501652,0.0,0.4994737203725276,0.5710320585012271,0.42190074996954097,-0.5537476377541062,0.4350697633951794,0.026767708502903914,0.09530248026247157,-3.91608255373624
32.8,-74.20548783814208,21.699956041510912,295.13329482437376,305.0917964013305,0,7.675401213701284,216.732194442381,11.026216676293906,19.837776494145793,0.005606621374028327,0.020096348925769978,-0.004079269555177466,0.2655960272005381,0.000878433014865471,0.0005015646497384612,6.72277872489559,3.0053517095799682,6.288982425501652,0.0,0.4994737203725276,0.7927600068500613,0.05828615552149352,-0.0767730553934283,0.6018639327781427,0.000878433014865471,0.0005015646497384612,6.72277872489559
33.0,-74.20491611401577,21.70197345776652,295.0974534997271,305.0571295503079,0,7.635483146710776,216.38233817188154,11.026225636625067,19.836581783324235,0.0028586206315139454,0.010087081278040555,-0.17920662323319647,0.23843723585321291,-0.013740003712571714,-0.050046338238646404,-0.8756367683900826,2.688998082566793,6.288982425501652,0.0,0.4994737203725276,0.5802984842241152,0.41378233644675405,-0.5473409110824257,0.43869781662018725,-0.013740003712571714,-0.050046338238646404,-0.8756367683900826
33.2,-74.2043347604777,21.703995280976173,295.1305014945133,305.0891011176974,0,7.596380165263412,216.02601402597276,11.026217374626372,19.837683383150445,0.0029067676903337812,0.010109116048262335,0.1652399739307929,0.16056265626409447,0.0002407352940991758,0.0001101738511088952,1.7222329858199226,2.0453810807741477,6.288982425501652,0.0,0.4994737203725276,0.5825432582198946,-0.41160804178695126,0.5466392662578298,0.4386430038470488,0.0002407352940991758,0.0001101738511088952,1.7222329858199226
33.3,-74.20374273034082,21.70602560660635,295.14526712790916,305.10338524970535,0,7.576863344193286,215.8454462506239,11.026213683218023,19.838175570930304,0.005920301368860573,0.020303256301766926,0.14765633395882943,0.2210459504825777,0.030135336785269633,0.10194140253505171,-0.17583639971964465,0.768174216172272,6.288982425501652,0.0,0.4994737203725276,0.6044436562500687,-0.39305586247660845,0.5240377674601647,0.4533645041985362,0.030135336785269633,0.10194140253505171,-0.17583639971964465
33.5,-74.20314030665347,21.708059220000003,295.20268872113536,305.15893120578244,0,7.538222943864554,215.4795394208042,11.026199327819716,19.840089624037844,0.003012118436771473,0.010168066968265633,0.28710796613097095,0.3413620520339603,-0.014540914660445296,-0.050675946667505745,0.6972581608606977,3.0457070041818746,6.288982425501652,0.0,0.4994737203725276,0.5769376740369313,-0.41519268458008035,0.556020909882994,0.4308116789514056,-0.014540914660445296,-0.050675946667505745,0.6972581608606977
33.61,-74.20252736269913,21.710101506377498,295.23822909744433,305.1933084047295,0,7.517079859648817,215.27559793865814,11.026190442725639,19.841274303248145,0.005572217766701823,0.018566239795412574,0.32309433008157035,0.45977373219646134,0.02327363027209421,0.07634702570133622,0.32714876318726893,4.2396043531864365,6.288982425501652,0.0,0.4994737203725276,0.5840725058731504,-0.40922736425061484,0.5500806865954174,0.4345152591869098,0.02327363027209421,0.07634702570133622,0.32714876318726893
33.7,-74.20190398199622,21.712146110837665,295.1679631821102,305.12532889350126,0,7.498826588273335,215.10732521075317,11.026208009204472,19.83893210607034,0.006926452254497478,0.022717827335187644,-0.7807323926012898,0.5404133085848691,0.015047049864395604,0.04612875044194348,-12.264741363142427,5.508322685718392,-174959545024715.75,0.0,-247925169370.16083,0.5768255426451118,0.4143743605191996,-0.559545057045414,0.42717152507221395,0.015047049864395604,0.04612875044194348,-12.264741363142427
33.9,-74.20127031829765,21.714200048358716,295.31947450241734,305.2718903223373,0,7.4614737364549,214.72886979090566,11.026170131374395,19.84398248341391,0.003168318492896628,0.010269687605255703,0.7575566015356278,0.7257510241472682,-0.018790668808004653,-0.06224069864966104,7.691444970684752,6.691738260077071,-87573764395275.95,0.0,-433702245262.56085,0.5729677677509779,-0.41689191620193894,0.5648968386576311,0.4228482340019304,-0.018790668808004653,-0.06224069864966104,7.691444970684752
34.1,-74.20062620559054,21.71625567379931,295.20902328764936,305.16503095905256,0,7.421697941132948,214.3442404412284,11.026197744178088,19.840300776254978,0.003220563535535302,0.010278127202969355,-0.5522560738398773,0.7850877272439336,0.00026122521319336674,4.219798856825867e-05,-6.549063376877432,8.458483804472095,-87573764395275.95,0.0,-433702245262.56085,0.5753991437129126,0.4145251445521089,-0.5642863170522961,0.4226886352104295,0.00026122521319336674,4.219798856825867e-05,-6.549063376877432
34.2,-74.19997286809608,21.718320211899478,295.08764336907757,305.0476006717127,0,7.401227093044527,214.14963186814148,11.02622808915773,19.836254778969252,0.006533374944552768,0.020645381001677936,-1.2137991857178858,1.138116506905515,0.033128114090174195,0.10367253798708434,-6.615431118779991,12.33836956438924,-87573764395275.95,0.0,-433702245262.56085,0.575527833179089,0.41407556869158885,-0.5653518512298361,0.421528671575158,0.033128114090174195,0.10367253798708434,-6.615431118779991
34.4,-74.19930907026904,21.72039066728168,295.2116960799496,305.1675905787592,0,7.364120335968361,213.75587017127594,11.026197075980011,19.840389869331652,0.0033189891352237307,0.010352276911014478,0.6202635543601919,1.0638989865153266,-0.01607192904664553,-0.05146552045331839,9.170313700390585,16.131258874461416,-87573764395275.95,0.0,-433702245262.56085,0.5762318114200894,-0.41307621027291214,0.5662207449627373,0.42037960462888085,-0.01607192904664553,-0.05146552045331839,9.170313700390585
34.5,-74.19863457679749,21.722462304451767,294.95708165547705,304.92127305313613,0,7.342487791137911,213.5567345479524,11.02626072958613,19.831902721849236,0.006744934715498988,0.02071637170086375,-2.5461442447254607,1.198056732988289,0.03425945580275209,0.10364094789849125,-31.66407799085608,16.515288421317923,-87573764395275.95,0.0,-433702245262.56085,0.5746290889257363,0.4136736644690547,-0.5697331623180041,0.41722851441416237,0.03425945580275209,0.10364094789849125,-31.66407799085608
34.61,-74.19794909260251,21.724539447800005,294.9995453328247,304.9623304776194,0,7.321987578074132,213.33596313235807,11.026250113666794,19.833318177760823,0.006231674499769178,0.018883121347618763,0.3860334304332292,1.000154038045498,-0.004666001961180119,-0.01666591230222724,26.656160683260957,18.085079259903342,-87573764395275.95,0.0,-433702245262.56085,0.5875696588138203,-0.40351285898353373,0.5580825801454421,0.42483302886493157,-0.004666001961180119,-0.01666591230222724,26.656160683260957
34.8,-74.19725705283784,21.726624731602083,294.76715725109733,304.7375201222946,0,7.283701196069506,212.95041498136132,11.026308210687226,19.82557190836991,0.0036423145509071942,0.010975177905673568,-1.2230951669862193,0.9702492847774871,-0.013628210257168498,-0.04162075495760679,-8.469097881155093,16.94517124590036,-1766508207485.368,0.0,98357421143.10698,0.576065981481855,0.4118699949498554,-0.5706452996315198,0.4157824361944673,-0.013628210257168498,-0.04162075495760679,-8.469097881155093
34.9,-74.19655131288954,21.728711890020087,294.78949675132793,304.75910575736197,0,7.265092411759639,212.74536750193124,11.026302625812168,19.8263165583776,0.007057399483016879,0.020871584180035246,0.2233950023060029,0.4867804788018682,0.03415084932109636,0.09896406274361537,14.464901692922018,10.954608870777836,-3533016415131.542,0.0,196714842286.43433,0.6020603260720377,-0.391462492693255,0.5456027829505073,0.43197000338111025,0.03415084932109636,0.09896406274361537,14.464901692922018
35.1,-74.19583813837569,21.73080808710356,294.69535577646496,304.66802118599816,0,7.226693358820713,212.33091568811068,11.026326161055884,19.823178525882167,0.003565872569239963,0.010480985417373596,-0.4707048743148267,0.4317251546864386,-0.01745763456888433,-0.051952993813307514,-3.470499383104099,6.09876256204654,-3533016415131.542,0.0,196714842286.43433,0.5816311086575979,0.4068070881359641,-0.568112002688801,0.4164876935576742,-0.01745763456888433,-0.051952993813307514,-3.470499383104099
35.3,-74.195115335146,21.732908486790485,294.6696729713604,304.64315291819594,0,7.189266982055608,211.91071624109645,11.02633258175716,19.822322432378677,0.003614016148461096,0.010501998434620187,-0.12841402552283218,0.21824961572279675,0.00024071789610566972,0.00010506508623296018,1.7114542439600093,4.931275084199233,-3533016415131.542,0.0,196714842286.43433,0.5999176182688826,0.3925789705426191,-0.550270776653371,0.4279984527303629,0.00024071789610566972,0.00010506508623296018,1.7114542439600093
35.4,-74.19437897928147,21.735010272908305,294.6805746827561,304.65366834988885,0,7.170903910944101,211.69848445965792,11.02632985632931,19.822685822758537,0.00736355864532346,0.021017861178193854,0.10901711395717784,0.18848329854674759,0.037495424968623105,0.10515862743573517,2.3743113948000665,2.1183456025172025,-3533016415131.542,0.0,196714842286.43433,0.631856625664872,-0.3658501263621706,0.5158280353702942,0.44814319984822726,0.037495424968623105,0.10515862743573517,2.3743113948000665
35.5,-74.19363259709402,21.73711709917494,294.66515865927164,304.6387255511511,0,7.152355252020797,211.48484386190574,11.026333710335182,19.822171955309056,0.007463821874438175,0.021068262666368,-0.15416023484476463,0.10157396779107515,0.0010026322911471422,0.0005040148817414475,-2.631773488019387,1.4644715556839474,-3533016415131.542,0.0,196714842286.43433,0.617522174343161,0.37765574817906356,-0.5344460502766832,0.4363598508174869,0.0010026322911471422,0.0005040148817414475,-2.631773488019387
35.7,-74.19287962512622,21.739231039199822,294.6501965513905,304.6242207721133,0,7.115656751971413,211.05337426006213,11.026337450862153,19.821673218379683,0.0037648598389949405,0.010569700124403019,-0.07481053940580189,0.17202439808057335,-0.018494810177215913,-0.05249281270982416,0.39674847719480805,1.9336453541838268,-3533016415131.542,0.0,196714842286.43433,0.6191999591888354,0.376132580024084,-0.5332569996525091,0.4367524070987754,-0.018494810177215913,-0.05249281270982416,0.39674847719480805
