time,position_x,position_y,position_z,ground_station_distance,comm_range_status,wind_speed,wind_angle,battery_voltage,battery_current,velocity_x,velocity_y,velocity_z,velocity_total,acceleration_x,acceleration_y,acceleration_z,acceleration_total,angular_x,angular_y,angular_z,orientation_w,orientation_x,orientation_y,orientation_z,linear_acceleration_x,linear_acceleration_y,linear_acceleration_z
0.0,-79.78239570000002,40.811600630593276,269.3324017,283.8498899333107,0,7.693324017,180.0,11.032666899575,18.977746723333333,0.011738989713165893,0.008282078929831016,0.012359152323995204,0.032682653402041295,0.11739971940585302,0.0820334830368808,0.2606566705736669,0.25255266384695074,2096529360341025.2,0.0,-8229323942136.6,0.8936756514584213,-0.10517235987720866,0.3315082366011306,0.2835222985478106,0.11739971940585302,0.0820334830368808,0.2606566705736669
0.2,-79.78004790205739,40.81325704637924,269.3348735304648,283.85181361699955,0,7.733346068691314,180.59998222238025,11.032666281617383,18.97782911768216,0.011738989713165893,0.008282078929831016,0.012359152323995204,0.032682653402041295,0.11739971940585302,0.0820334830368808,0.2606566705736669,0.25255266384695074,2096529360341025.2,0.0,-8229323942136.6,0.8936756514584213,-0.10517235987720866,0.3315082366011306,0.2835222985478106,0.11739971940585302,0.0820334830368808,0.2606566705736669
0.3,-79.77770000589202,40.814905589102594,269.3387160124029,283.8550367347518,0,7.753378160529021,180.89994000119998,11.032665320996898,18.97795720041343,0.02347896165375119,0.016485427233519093,0.03842481938136189,0.032682653402041295,0.11739971940585302,0.0820334830368808,0.2606566705736669,0.25255266384695074,2096529360341025.2,0.0,-8229323942136.6,0.8523930532410344,-0.1350478191118259,0.4273534430477971,0.2693644446744222,0.11739971940585302,0.0820334830368808,0.2606566705736669
0.5,-79.77535233327997,40.81654626241001,269.3430996973098,283.85877235563004,0,7.793389335514455,181.4997222376539,11.032664225075672,18.97810332324366,0.011738363060231904,0.008203366537067325,0.0219184245344195,0.032682653402041295,-0.058702992967596436,-0.04141030348225884,-0.08253197423471195,0.25255266384695074,2096529360341025.2,0.0,-8229323942136.6,0.8388947962996164,-0.1429102507772724,0.45397421984255204,0.26408254141943627,-0.058702992967596436,-0.04141030348225884,-0.08253197423471195
0.6,-79.77300468599508,40.81817902012168,269.3474454367244,283.86247088764605,0,7.813402467326133,181.79952003839853,11.03266313864082,18.978248181224146,0.02347647284892674,0.016327577116754814,0.043457394145889346,0.04018589816757392,0.11738109788694838,0.08124210579687491,0.2153896961146985,0.25255266384695074,2096529360341025.2,0.0,-8229323942136.6,0.8399318149735713,-0.14196748564480538,0.45276811553634627,0.26336441059596544,0.11738109788694838,0.08124210579687491,0.2153896961146985
0.81,-79.77065736580771,40.81980387623215,269.35001968225174,283.8644875075016,0,7.855323107926513,182.42881919217493,11.032662495079437,18.97833398940839,0.011177715177945214,0.007737410049845123,0.012258312034960212,0.033473923276860586,-0.05856551271895963,-0.0409055574614747,-0.14856705767109105,0.24502130201535816,2096529360341025.2,0.0,-8229323942136.6,0.8909998330101304,-0.1069439619518869,0.34239267784445354,0.27829757587240567,-0.05856551271895963,-0.0409055574614747,-0.14856705767109105
0.9,-79.76831018448371,40.821420714911056,269.35422728558433,283.86805289691546,0,7.873299371251866,182.698380291575,11.032661443178604,18.978474242852812,0.026079792488865737,0.017964874210068482,0.04675114813987119,0.03437553949431026,0.16557863678800588,0.11363849066914848,0.383253734499011,0.26271701808038833,2096529360341025.2,0.0,-8229323942136.6,0.8435356397186007,-0.13919654225640696,0.44744867133607547,0.2624150027494086,0.16557863678800588,0.11363849066914848,0.383253734499011
1.1,-79.76596342378315,40.82302957050399,269.3537903985242,283.8672102696799,0,7.913094505659592,183.29704301743396,11.032661552400368,18.97845967995081,0.011733803502806946,0.008044277964671661,-0.0021844353005917574,0.029315040071745502,-0.07172994493029393,-0.04960298122698409,-0.24467791720231466,0.22903559171608823,2161520438728907.2,0.0,-4135193500743.3906,0.9524225429921213,0.022525885098018127,-0.07269492960153515,0.2951259583825182,-0.07172994493029393,-0.04960298122698409,-0.24467791720231466
1.2,-79.76361701545933,40.824630377533246,269.35495257300516,283.86788391865844,0,7.93297394030789,183.59616122861277,11.032661261856749,18.97849841910017,0.02346408323816721,0.01600807029255693,0.01162174480953128,0.03161055393226181,0.11730279735360277,0.07963792327885279,0.13806180110123056,0.2349901940820641,2161520438728907.2,0.0,-4135193500743.3906,0.937568823716554,-0.056906143385231686,0.18438493132014647,0.289358927185324,0.11730279735360277,0.07963792327885279,0.13806180110123056
1.4,-79.76127092125749,40.82622307069857,269.359482061114,283.8717516862576,0,7.972681049899613,184.19390487759242,11.032660129484722,18.978649402037135,0.011730471009201441,0.0079634658266059,0.022647440544290024,0.023709249776435428,-0.05866806114482885,-0.04022302232975516,0.05512847867379373,0.16263233542062377,2161520438728907.2,0.0,-4135193500743.3906,0.8362142585237348,-0.14232993871842278,0.46306175470902106,0.2570247336577025,-0.05866806114482885,-0.04022302232975516,0.05512847867379373
1.5,-79.7589254329138,40.82780767487801,269.3604082151129,283.872199377752,0,7.992480347098327,184.49250374910727,11.032659897946221,18.978680273837096,0.023454883436926345,0.015846041794418383,0.009261539988756331,0.030238533121291638,0.11724412427724894,0.07882575967812477,-0.1338590055553368,0.17382686410143,2161520438728907.2,0.0,-4135193500743.3906,0.9442688255102768,-0.04609004939442803,0.15055247612290928,0.28907792106890917,0.11724412427724894,0.07882575967812477,-0.1338590055553368
1.7,-79.75658044215412,40.82938411512863,269.3622850874611,283.87354818402014,0,8.031987549008603,185.08908923171782,11.032659428728135,18.978742836248703,0.011724953798406549,0.007882201253117673,0.00938436174095614,0.02745597178085778,-0.05864964819259899,-0.03981920270650356,0.0006141087609990403,0.16607336201601114,2161520438728907.2,0.0,-4135193500743.3906,0.9157214012277982,-0.08427475118632403,0.27641529117173874,0.27918930576281714,-0.05864964819259899,-0.03981920270650356,0.0006141087609990403
1.8,-79.75423590069286,40.83095234668732,269.3660495308367,283.8766870552951,0,8.051719642160014,185.38704932800138,11.03265848761729,18.978868317694555,0.023445414612552874,0.01568231558685794,0.03764443375587231,0.0315634943413481,0.11720460814146315,0.0780011433374026,0.28260072014916143,0.21225943963847832,2161520438728907.2,0.0,-4135193500743.3906,0.8557533304260587,-0.1299825449818962,0.4281181429445845,0.25981845805565557,0.11720460814146315,0.0780011433374026,0.28260072014916143
2.0,-79.75189207023196,40.83251237497152,269.3678748981585,283.877985026638,0,8.091017410571707,185.98223801800413,11.03265803127546,18.97892916327195,0.011719152304507933,0.0078001414210149295,0.009126836609141266,0.02892604018333724,-0.05863131154022472,-0.03941087082921506,-0.14258798573365525,0.2056811405918637,2161520438728907.2,0.0,-4135193500743.3906,0.9178862870365179,-0.08209552391953012,0.2715083439919948,0.27753974159643835,-0.05863131154022472,-0.03941087082921506,-0.14258798573365525
2.1,-79.74954882245962,40.83406413558006,269.3716740426079,283.88115490065826,0,8.110636540118279,186.27944015899064,11.032657081489347,18.979055801420262,0.023432477723446234,0.01551760608535345,0.03799144449374122,0.035010489398187045,0.1171332541893829,0.07717464664338514,0.2886460788459993,0.2565254414497387,2161520438728907.2,0.0,-4135193500743.3906,0.8550332955382559,-0.12978404786308764,0.4310400916330689,0.25744631255121303,0.1171332541893829,0.07717464664338514,0.2886460788459993
2.3,-79.74720639904919,40.835607604293806,269.37344801765045,283.8824021910873,0,8.149689527246881,186.87299398884537,11.032656637995586,18.979114933921682,0.011712117052127284,0.007717343568742773,0.008869875212838009,0.028659577043981217,-0.058601803356594824,-0.039001312583053435,-0.14560784640451624,0.2257993453206645,2161520438728907.2,0.0,-4135193500743.3906,0.920047847045122,-0.07990830935015243,0.2665031357354725,0.27586717798171717,-0.058601803356594824,-0.039001312583053435,-0.14560784640451624
2.4,-79.74486466165808,40.837142737076526,269.3772704770579,283.8855923017308,0,8.169177957624848,187.16931929764107,11.032655682380735,18.979242349235264,0.023417373911058782,0.015351327827204372,0.038224594074449635,0.03176739898530788,0.11705256858931487,0.07633984258461593,0.293547188616116,0.23344174853784233,2161520438728907.2,0.0,-4135193500743.3906,0.854615575189052,-0.12937982527497696,0.4333472413743791,0.2551533810266243,0.11705256858931487,0.07633984258461593,0.293547188616116
2.61,-79.74252381192656,40.83866951007556,269.37884927492956,283.8866525004902,0,8.209882119087215,187.79054958741378,11.032655287681267,18.97929497583099,0.011146903483449934,0.007270347614455173,0.007518085103204917,0.02793757611317623,-0.058430811560042144,-0.038480858155948566,-0.14622147129164154,0.19216091414459796,2161520438728907.2,0.0,-4135193500743.3906,0.9270291457796339,-0.07246339115004748,0.243744673831875,0.2755985373631548,-0.058430811560042144,-0.038480858155948566,-0.14622147129164154
2.7,-79.74018384147668,40.84018789962261,269.37967286571427,283.88699515826397,0,8.227259602034804,188.0563308041621,11.03265508178357,18.97932242885714,0.025999671665349184,0.016870994967237866,0.009151008718946358,0.0315120797399839,0.16503075757665778,0.10667385947536288,0.018143595730460396,0.18869148775910677,1.2367329170568808,0.0,0.0953800152835143,0.9490088389595188,-0.04060515332458383,0.13717194464740967,0.2809222360402268,0.16503075757665778,0.10667385947536288,0.018143595730460396
2.9,-79.73784475191107,40.84169785223448,269.38455660423193,283.8911895533071,0,8.26575001625199,188.64590342175129,11.032653860848942,18.979485220141065,0.011695447828046228,0.007549763059344638,0.024418692588312783,0.025602909619594,-0.07152111918651487,-0.0466061595394662,0.07633841934683222,0.13969673123324378,8.301351518670742,0.0,-0.09451563356498838,0.8293824489890672,-0.1420218130985859,0.48187394072052153,0.2444423514196405,-0.07152111918651487,-0.0466061595394662,0.07633841934683222
3.0,-79.73550669481183,40.84319935461378,269.3865960456952,283.89268410877673,0,8.28490637377963,188.94011988577776,11.032653350988577,18.979553201523174,0.023380570992372875,0.01501502379298357,0.020394414632960416,0.033425389512482806,0.11685123164326636,0.07465260733638926,-0.04024277955352363,0.1900972582175135,26.974725478651898,0.0,-0.09688582770275075,0.9118555254495918,-0.08765958795123142,0.2987210723939995,0.26758366589731913,0.11685123164326636,0.07465260733638926,-0.04024277955352363
3.21,-79.73316966173945,40.8446923736497,269.38911404573116,283.89463187202,0,8.324922417642766,189.55666554280648,11.032652721488567,18.979637134857704,0.011128728916091969,0.0071096144567594005,0.011990476361591262,0.03219761783590726,-0.05834210512514718,-0.03764480636297224,-0.040018753673186455,0.17890009310783878,13.767490298882695,0.0,0.09430665253195088,0.8954006944384943,-0.10104396498627664,0.3458507106425564,0.2616008399966498,-0.05834210512514718,-0.03764480636297224,-0.040018753673186455
3.3,-79.73083365423153,40.846176846418714,269.39315236040255,283.8980213683123,0,8.342017580393762,189.82033303863912,11.0326517119099,18.979771745346753,0.02595563897690079,0.016494141877940516,0.04487016301545238,0.03691139431320174,0.16474344512009825,0.10427252690201255,0.36532985170956855,0.2069969702664846,9437401204364.457,0.0,-2168463302236.0005,0.8494836204429099,-0.13019825186043188,0.4476362633181525,0.2470784684553782,0.16474344512009825,0.10427252690201255,0.36532985170956855
3.5,-79.72849883380181,40.84765275018534,269.39759994622955,283.901798370986,0,8.379771614373198,190.40498125354344,11.032650600013442,18.97991999820765,0.011674102148617738,0.007379518833126035,0.02223792913497389,0.03541538016295353,-0.07140768414141518,-0.04557311522407236,-0.11316116940239235,0.2028311542716918,9437401204364.457,0.0,-2168463302236.0005,0.8394675084529672,-0.13517778717100734,0.4668341080373054,0.24307855454632477,-0.07140768414141518,-0.04557311522407236,-0.11316116940239235
3.6,-79.72616514193889,40.84912007240281,269.4019709602113,283.90550184203164,0,8.398568176152292,190.69661818922106,11.032649507259947,18.980065698673712,0.023336918629155413,0.014673222174721431,0.04371013981767642,0.042423290717206394,0.11662816480537665,0.0729370334159539,0.21472210682702514,0.23858798682961702,9437401204364.457,0.0,-2168463302236.0005,0.8413681822936248,-0.13377761173260855,0.4640934141251675,0.24252924646047735,0.11662816480537665,0.0729370334159539,0.21472210682702514
3.8,-79.72383275010522,40.85057877071384,269.4066148598472,283.9094634289444,0,8.435907087424438,191.2784529096354,11.032648346285038,18.98022049532824,0.01166195916837866,0.007293491555131491,0.023219498179400975,0.037049843623065674,-0.05837479730388385,-0.03689865309794975,-0.10245320819137738,0.1799820397475777,9437401204364.457,0.0,-2168463302236.0005,0.8351095547057269,-0.13657180147333303,0.47593411686174575,0.23963908506034923,-0.05837479730388385,-0.03689865309794975,-0.10245320819137738
3.9,-79.72150159973587,40.852028812951296,269.4111340031583,283.9133057824494,0,8.454488170277905,191.56862483514698,11.03264721649921,18.98037113343861,0.023311503693435022,0.014500422374581478,0.04519143311085823,0.041616782261359155,0.11649544525056352,0.0720693081944998,0.21971934931457235,0.20152974138949084,9437401204364.457,0.0,-2168463302236.0005,0.8380319913454578,-0.1346651531298667,0.4714525957764652,0.23937445133035545,0.11649544525056352,0.0720693081944998,0.21971934931457235
4.11,-79.71917185223742,40.85347016713895,269.4162250487086,283.91769001772377,0,8.493214749186563,192.17629692654444,11.032645943737823,18.980540834956955,0.011094035706906046,0.006863591369785742,0.024243074049189996,0.03846279091138993,-0.0581784189834712,-0.03636586192759867,-0.09975409076984854,0.16806832390122156,9437401204364.457,0.0,-2168463302236.0005,0.8257189258149858,-0.1402731606647251,0.4933476593010102,0.23477602733304903,-0.0581784189834712,-0.03636586192759867,-0.09975409076984854
4.2,-79.71684347898689,40.85490280149215,269.41968685562665,283.92052740609756,0,8.509717774675407,192.43600418538512,11.032645078286093,18.98065622852089,0.02587081389483126,0.01591815948000572,0.03846452131155179,0.04239798460048669,0.1641864243102804,0.10060631233577769,0.1580160806929091,0.1720915689365149,9437401204364.457,0.0,-2168463302236.0005,0.865923460759207,-0.11873571892543658,0.41955085514551055,0.2450621739574035,0.1641864243102804,0.10060631233577769,0.1580160806929091
4.4,-79.7145165213305,40.85632670441854,269.4263298836264,283.92638273075,0,8.546142228968263,193.01151495687571,11.032643417529092,18.980877662787545,0.011634788281966724,0.007119514631952478,0.03321513999878786,0.03850376456721905,-0.07118012806432261,-0.04399322424026618,-0.026246906563819627,0.1358158958024269,9437401204364.457,0.0,-2168463302236.0005,0.7995125736203603,-0.15097407629865797,0.5359736234309568,0.2252082322984795,-0.07118012806432261,-0.04399322424026618,-0.026246906563819627
4.5,-79.71219107058259,40.857741774518736,269.4301199930287,283.92953003807855,0,8.564232268152749,193.2984092997603,11.032642470001742,18.981003999767623,0.023254507479038095,0.01415070100193821,0.03790109402302746,0.04389631877535104,0.11619719197071411,0.07031186369985758,0.04685954024239612,0.1546625971480256,9437401204364.457,0.0,-2168463302236.0005,0.8567328871768649,-0.12320578843556841,0.4394797291633984,0.24018047668374123,0.11619719197071411,0.07031186369985758,0.04685954024239612
4.7,-79.70986716802456,40.85914805058705,269.43622404478214,283.9348723402498,0,8.600134811205958,193.87041214631236,11.032640943988804,18.981207468159404,0.011619512790161924,0.007031380341580012,0.030520258767126024,0.04140214869240857,-0.0581749734443808,-0.03559660330179096,-0.036904176279507137,0.12387203858643425,9437401204364.457,0.0,-2168463302236.0005,0.8077650188829697,-0.14639293255084784,0.5246807522254792,0.22537722114771053,-0.0581749734443808,-0.03559660330179096,-0.036904176279507137
4.8,-79.70754484490357,40.86054549161215,269.4409515004844,283.9389075638645,0,8.61796786608781,194.1554952277253,11.032639762124878,18.981365050016148,0.023223231209925727,0.013974410250980946,0.04727455702266087,0.04511040824868405,0.11603718419763843,0.06943029909400958,0.16754298255534902,0.14424196070990253,9437401204364.457,0.0,-2168463302236.0005,0.8337234884098583,-0.1341257082854689,0.4830340255650861,0.23150284965202014,0.11603718419763843,0.06943029909400958,0.16754298255534902
5.0,-79.70522419243159,40.86193404677776,269.44774102240336,283.94489880905616,0,8.65332848743244,194.72376135582684,11.032638064744399,18.981591367413447,0.01160326235989827,0.006942775828058239,0.033947609594804334,0.043941681094802454,-0.05809984425013723,-0.0351581721146135,-0.06663473713928261,0.1316168365114348,9437401204364.457,0.0,-2168463302236.0005,0.7977615253922803,-0.14948250877309638,0.540958052581849,0.22044480833427854,-0.05809984425013723,-0.0351581721146135,-0.06663473713928261
5.1,-79.70290521178416,40.86331370546333,269.45247017349755,283.948934121594,0,8.67087919550079,195.00691914633666,11.032636882456625,18.981749005783254,0.023189806474306435,0.013796586855647823,0.04729151094181833,0.048159430614255774,0.11586544114408205,0.06853811027589608,0.1334390134701404,0.14825625710613954,9437401204364.457,0.0,-2168463302236.0005,0.8338006326281391,-0.13315277351988242,0.4842301952084614,0.22927704198469875,0.11586544114408205,0.06853811027589608,0.1334390134701404
5.3,-79.70058802409928,40.8646844072447,269.4601775174376,283.9557948533889,0,8.70566845758407,195.57122125711322,11.03263495562064,18.982005917247918,0.011585938424403242,0.006853508906878852,0.03853671970034608,0.045969746374323925,-0.05801934024951591,-0.034715389743844825,-0.04377395620736121,0.11970902798598373,9437401204364.457,0.0,-2168463302236.0005,0.7864934932010824,-0.15278250402039464,0.5583662700039723,0.215203624828831,-0.05801934024951591,-0.034715389743844825,-0.04377395620736121
5.4,-79.69827261047631,40.86604617189482,269.46491891862695,283.95984032014,0,8.722921172492494,195.85234049737906,11.032633770270342,18.982163963954232,0.023154136229663766,0.013617646501202712,0.047414011893351676,0.05681205318601137,0.11568197805260462,0.06764137594323824,0.08877292193005552,0.20570933717490664,9437401204364.457,0.0,-2168463302236.0005,0.8336351932614486,-0.13227753778787224,0.48583872570590997,0.22697081344785866,0.11568197805260462,0.06764137594323824,0.08877292193005552
5.61,-79.69595907197481,40.86739890938436,269.4736617422226,283.9676822435652,0,8.758802992017447,196.44038273173368,11.032631584564443,18.98245539140742,0.011016850007127321,0.006441607093049265,0.04163249331256902,0.05325670956620491,-0.05779660105969737,-0.034171616229302135,-0.027531040860869802,0.22192758429845488,-688023564786.979,0.0,1136260371015.0754,0.776102563708585,-0.1554530508200918,0.5738434948673905,0.21024462655218323,-0.05779660105969737,-0.034171616229302135,-0.027531040860869802
5.7,-79.69364741961346,40.86874264988241,269.4813794541554,283.9745506860403,0,8.774077892009492,196.69142112358423,11.03262965513646,18.982712648471846,0.02568502623729631,0.014930449978262735,0.08575235480887197,0.06427836674156455,0.1629797358907668,0.09432047650237203,0.4902206832922558,0.32482424736568105,-688023564786.979,0.0,1136260371015.0754,0.7865957923384792,-0.15092280310591671,0.5599468112069935,0.21201164023980448,0.1629797358907668,0.09432047650237203,0.4902206832922558
5.9,-79.6913377443689,40.87007732375709,269.48821142115156,283.9805779043846,0,8.807604160037084,197.24711973558604,11.032627947144713,18.982940380705053,0.011548376222805235,0.006673369373402232,0.034159834980869136,0.0665971615747208,-0.07068325007245531,-0.041285403024302475,-0.25796259914001396,0.3231690255448628,-688023564786.979,0.0,1136260371015.0754,0.797568383762972,-0.14608939315383684,0.5447948137699908,0.21387186191499158,-0.07068325007245531,-0.041285403024302475,-0.25796259914001396
6.0,-79.68903004717457,40.87140290157627,269.4974277107527,283.9888670841074,0,8.824259223897597,197.52382540388928,11.032625643072311,18.983247590358424,0.023076971943254504,0.013255778191805281,0.09216289601113237,0.06874725244850405,0.1152859572044931,0.06582408818403072,0.5800306103026344,0.3522623484456021,-688023564786.979,0.0,1136260371015.0754,0.7721912446403614,-0.15492878955572204,0.5807609117790553,0.20599639612655515,0.1152859572044931,0.06582408818403072,0.5800306103026344
6.2,-79.68672439891967,40.87271937410817,269.5103759913361,284.00069718480506,0,8.85717408098797,198.07488797572614,11.032622406002165,18.983679199711204,0.01152824127451878,0.006582362659521828,0.06474140291714997,0.06533992511992508,-0.057743653343678564,-0.033367077661417235,-0.13710746546991187,0.2756515768229818,-688023564786.979,0.0,1136260371015.0754,0.7489521350455133,-0.1621389405695738,0.6109637266580887,0.19875861759884425,-0.057743653343678564,-0.033367077661417235,-0.13710746546991187
6.3,-79.684420880448,40.87402670232203,269.51511563213575,284.0047368339444,0,8.873440672205897,198.34922038768065,11.032621221091965,18.98383718773786,0.023035184716633322,0.01307328213854935,0.04739640799641637,0.06881952640402447,0.11506943442114582,0.06490919479027545,-0.17344994920733664,0.2785710210686095,-688023564786.979,0.0,1136260371015.0754,0.8339336838804351,-0.12916809184993572,0.4892888495784066,0.2201513947620872,0.11506943442114582,0.06490919479027545,-0.17344994920733664
6.5,-79.68211951255681,40.875324837388725,269.5296202032623,284.01804259147036,0,8.905669013504703,198.89542650167127,11.032617594949183,18.984320673442078,0.011506839455961416,0.006490675333488121,0.07252285563282605,0.06547719626343114,-0.05764172630335948,-0.03291303402530611,0.1256322381820483,0.19317887306040663,-688023564786.979,0.0,1136260371015.0754,0.7426815013653568,-0.1627029979496651,0.6196122086592273,0.1950195704751828,-0.05764172630335948,-0.03291303402530611,0.1256322381820483
6.6,-79.67982036599571,40.876613780681424,269.5343411757234,284.0220632288337,0,8.921577115704102,199.16727592796997,11.03261641470607,18.98447803919078,0.022991465610999823,0.012889432926996892,0.0472097246108662,0.06305729761520476,0.11484626155038448,0.06398757593508793,-0.25313131021959945,0.22984748457461027,-688023564786.979,0.0,1136260371015.0754,0.8344132455999561,-0.1279262336523204,0.48978828356517434,0.21793772411668366,0.11484626155038448,0.06398757593508793,-0.25313131021959945
6.8,-79.67752344146557,40.87789350377621,269.5499648214441,284.036429801378,0,8.953085696251378,199.70840710895135,11.032612508794639,18.98499882738147,0.011484622650712584,0.006398615473912622,0.0781182286036141,0.06966228401605745,-0.05753421480143614,-0.03245408726542132,0.15454251996373938,0.22753398125607444,-688023564786.979,0.0,1136260371015.0754,0.7390033649482827,-0.16236566618030696,0.625025893850515,0.1919740843377181,-0.05753421480143614,-0.03245408726542132,0.15454251996373938
6.9,-79.67522886961734,40.879163968452715,269.5546838132865,284.0404473096506,0,8.9686212025768,199.9776648134484,11.032611329046677,18.98515612710955,0.02294571848224779,0.012704646765087023,0.04718991842366879,0.08889591280778404,0.11461095831535145,0.06306031291174367,-0.30928310179945145,0.3642479475188208,-688023564786.979,0.0,1136260371015.0754,0.8345156634680249,-0.12683691957341953,0.49092727641276124,0.2156070790433295,0.11461095831535145,0.06306031291174367,-0.30928310179945145
7.1,-79.67293666105101,40.88042513669474,269.57195072507045,284.05637224549736,0,8.999387049293778,200.51350461616315,11.032607012318731,18.985731690835685,0.011461042831655317,0.006305841210121366,0.08633455891981642,0.08550319023429162,-0.05742337825296257,-0.0319940277748284,0.19572320248073885,0.44096170654801786,-688023564786.979,0.0,1136260371015.0754,0.7343712236650651,-0.162251698329887,0.6314825849077881,0.18868767103316617,-0.05742337825296257,-0.0319940277748284,0.19572320248073885
7.2,-79.67064681631442,40.88167700069086,269.5887375315929,284.0718410585548,0,9.014656719258877,200.78006289936673,11.032602815617102,18.986291251053096,0.022898447365946473,0.012518639961172019,0.16786806522475128,0.10669236216782343,0.11437404534291096,0.062127987510506195,0.8153350630493442,0.7056441660183442,-688023564786.979,0.0,1136260371015.0754,0.7358395704862944,-0.16104126927542242,0.6302836970332173,0.18801142877720553,0.11437404534291096,0.062127987510506195,0.8153350630493442
7.4,-79.66835950590219,40.88291952283504,269.5956872086481,284.0779737617394,0,9.04453269534277,201.31039699503822,11.032601078197837,18.98652290695494,0.011436552061141459,0.006212610720908169,0.034748385275804566,0.11653895850733376,-0.05730947652402502,-0.03153014620131922,-0.665598399744733,0.7165696339987713,-688023564786.979,0.0,1136260371015.0754,0.7965060344837085,-0.14030470533352513,0.5522112221261182,0.20237463489847046,-0.05730947652402502,-0.03153014620131922,-0.665598399744733
7.5,-79.66607465025463,40.88415266572727,269.6140205330471,284.09490924226145,0,9.05941772537714,201.57414923718915,11.032596494866738,18.987134017768238,0.02284855647559433,0.012331428922323128,0.18333324399009207,0.11106176239307494,0.11412004414452911,0.06118818201414981,1.4858485871428804,0.7919068632484695,49887311121183.766,0.0,-8099819799.460419,0.7320576744786276,-0.1605932095731054,0.6356877610342543,0.1849390514391411,0.11412004414452911,0.06118818201414981,1.4858485871428804
7.71,-79.66379236975655,40.885376422174154,269.63554188263794,284.11486984362216,0,9.09006102104583,202.1248939586155,11.03259111452934,18.987851396087933,0.010868002371805257,0.005827411651825374,0.1024826170992453,0.10014415149519498,-0.05705025763709084,-0.03097151081189407,-0.3850029851945085,0.6907209908157604,3049300473919.995,0.0,-1217090789865.1167,0.7256132380216218,-0.16164563577398786,0.643534366562274,0.18226254770603123,-0.05705025763709084,-0.03097151081189407,-0.3850029851945085
7.8,-79.6615127347362,40.88659075518948,269.6402773363248,284.1188995416867,0,9.10296161176407,202.35960620296817,11.03258993066592,18.98800924454416,0.025329278003817398,0.013492589059183067,0.052616152076249596,0.10246559840261904,0.16068084035569072,0.08516863785953006,-0.554071833588842,0.6889355152369536,-6.634795715299992,0.0,-0.16579392896602982,0.8342735999848355,-0.12368263684166496,0.49525985162693215,0.20834549450061193,0.16068084035569072,0.08516863785953006,-0.554071833588842
8.0,-79.65923573546421,40.887795617994854,269.6631922740874,284.14018183971905,0,9.13134410453992,202.87829479190856,11.032584201931478,18.988773075802914,0.011384996359993228,0.0060243140268667564,0.11457468881303602,0.09096401077079444,-0.06972140821912079,-0.03734137516158152,0.30979268368393187,0.4798696557550647,-6.634795715299992,0.0,-0.16579392896602982,0.7235931651183029,-0.16057909021262587,0.6468041658624596,0.1796431412649244,-0.06972140821912079,-0.03734137516158152,0.30979268368393187
8.11,-79.6569614921523,40.888991024020285,269.667894577001,284.14417901255194,0,9.146631566859252,203.16184574156526,11.03258302635575,18.988929819233366,0.020674939199109822,0.010867327503919253,0.04274820830532526,0.08005007922886345,0.0844540258101513,0.044027395245932015,-0.6529680046155557,0.5558827749135851,-6.634795715299992,0.0,-0.16579392896602982,0.8350261177083254,-0.12224110208159393,0.49529373558691053,0.20608884296633545,0.0844540258101513,0.044027395245932015,-0.6529680046155557
8.3,-79.65468996495247,40.89017692690475,269.6920132272551,284.1666028953723,0,9.172782874492476,203.64867307169013,11.032576996693185,18.989733774241838,0.011955406314936337,0.006241594128765254,0.12694026449516405,0.0948617991335505,-0.045892278337754874,-0.024345965132389305,0.4431160852096748,0.535149981688238,-6.634795715299992,0.0,-0.16579392896602982,0.7221092458765499,-0.15932786933863882,0.6494535917484574,0.1771521922998361,-0.045892278337754874,-0.024345965132389305,0.4431160852096748
8.41,-79.65242130395556,40.8913533004968,269.69671540817285,284.1705989300897,0,9.187587574809584,203.92879124602558,11.032575821147956,18.98989051360576,0.02062419088094792,0.010694305382295245,0.04274709925249993,0.11884515784920353,0.07880713241828752,0.04047919321390922,-0.7653924112969506,0.6736653093855033,-6.634795715299992,0.0,-0.16579392896602982,0.8350406194855108,-0.12108836420238267,0.49657019915598516,0.20362418612294214,0.07880713241828752,0.04047919321390922,-0.7653924112969506
8.6,-79.6501554291904,40.89252010885512,269.72204610423046,284.1941723811379,0,9.212905586832859,204.40959219755445,11.032569488473943,18.990734870141015,0.011925656658724268,0.00614109662273834,0.13331945293478084,0.11653477485762767,-0.045781759064335126,-0.023964256629246936,0.47669659832779554,0.7410002148172345,-6.634795715299992,0.0,-0.16579392896602982,0.7207912661845208,-0.15799093136511055,0.6519079682866992,0.17468490799954103,-0.045781759064335126,-0.023964256629246936,0.47669659832779554
8.7,-79.64789249062262,40.89367733624911,269.74542970107586,284.2158976357535,0,9.226112171061768,204.6610771556343,11.03256364257473,18.991514323369195,0.022629385677817106,0.011572273939890507,0.23383596845406002,0.13190280947207192,0.10703729019092877,0.05431177317152187,1.0051651551927954,0.9329076187450523,627030516524.9467,0.0,-632195080909.9952,0.7236371016479798,-0.1563755899120613,0.6492439446368955,0.17429377599469786,0.10703729019092877,0.05431177317152187,1.0051651551927954
8.9,-79.64563257815345,40.89482495715945,269.7524163855476,284.22206044375366,0,9.251667658909124,205.16074781199663,11.032561895903612,18.991747212851585,0.011299562345854436,0.005738104551689075,0.034933422358562706,0.15286056155428637,-0.05664911665981305,-0.029170846941007005,-0.9945127304774813,0.8355811008750511,11.263436547836466,0.0,-0.06141872561529027,0.7963543235547018,-0.1336206159226657,0.5582390344590913,0.19061611359578778,-0.05664911665981305,-0.029170846941007005,-0.9945127304774813
9.02,-79.64337562161884,40.89596295627864,269.77682524569383,284.2447580979695,0,9.266905376620768,205.45840883930293,11.032555793688577,18.992560841523126,0.018807971121740867,0.009483325993227789,0.2034071678854364,0.13660899382296282,0.06257007313238733,0.03121017867948949,1.4039478793906233,0.9537259127332083,4.256695448219832,0.0,0.11167028886893533,0.7224768338587121,-0.15496334747854498,0.6515250867508846,0.17183901422548653,0.06257007313238733,0.03121017867948949,1.4039478793906233
9.2,-79.64112172078814,40.897091288511604,269.8043293707909,284.27039327377815,0,9.289246533780641,205.90183946278617,11.032548917657302,18.99347764569303,0.012521671281717791,0.006268512405366927,0.15280069498386561,0.11813880938216495,-0.03492388800012825,-0.01786007548811593,-0.28114707167539366,0.8480406190585725,568985852754.6138,0.0,-656064436705.6333,0.7188661186245672,-0.15503029039805394,0.6559995437176239,0.16988734854312743,-0.03492388800012825,-0.01786007548811593,-0.28114707167539366
9.3,-79.6388709853631,40.898209948976216,269.8089653513622,284.27432373119177,0,9.301329535281177,206.14658222417873,11.03254775866216,18.99363217837874,0.022507354250364778,0.011186604646127148,0.046359805712653974,0.12129220263131327,0.09985682968646845,0.04918092240760151,-1.0644088927121014,0.8416562083202759,563032047392.2811,0.0,3979779768.195703,0.8364969024139202,-0.11693810965676339,0.4980150315033873,0.1964164941100911,0.09985682968646845,0.04918092240760151,-1.0644088927121014
9.5,-79.63662337497682,40.899318903003845,269.83742767919597,284.30086782460376,0,9.325205286370707,206.63257072314389,11.0325406430802,18.994580922639866,0.01123805193138598,0.005544770138143937,0.1423116391688955,0.10881846859278768,-0.05634651159489419,-0.02820917253991615,0.4797591672812094,0.6562645545549568,563032047391.9757,0.0,3979779768.374153,0.7181861922293874,-0.15342865168367512,0.6577241179002704,0.16753276355953184,-0.05634651159489419,-0.02820917253991615,0.4797591672812094
9.6,-79.63437902919257,40.90041812613991,269.84209334736454,284.30482561565145,0,9.336804070075642,206.87379486130766,11.032539476663159,18.99473644491215,0.022443457842484884,0.010992231360660338,0.04665668168570408,0.08771208009375182,0.11205405911098944,0.054474612225164205,-0.9565495748319176,0.7810245536330369,529081966814.4339,0.0,-663352156326.3972,0.835803699788785,-0.11597641958942344,0.5004671260333791,0.19368608953274496,0.11205405911098944,0.054474612225164205,-0.9565495748319176
9.8,-79.63213791750275,40.90150758414441,269.87040915024176,284.331230164551,0,9.359698832486359,207.35264931030852,11.032532397712439,18.995680305008058,0.011205558449134342,0.005447290022502187,0.14157901438608103,0.10532826542940807,-0.05618949696675241,-0.027724706690790607,0.4746116635018822,0.6655307494979306,529081966821.4071,0.0,-663352156326.5768,0.7186567733742998,-0.15150445803169757,0.6581900211747943,0.16542290441678817,-0.05618949696675241,-0.027724706690790607,0.4746116635018822
9.91,-79.62990015932775,40.90258727299248,269.87505668352196,284.335169940237,0,9.371899067548618,207.61395197282562,11.032531235829119,18.995835222784066,0.020343256136357117,0.009815353164232139,0.042250302547328054,0.1271055248524874,0.08306997897475293,0.03970966492481795,-0.9029882894432135,0.7906539588104732,-39903885939.05674,0.0,-7287719621.06604,0.8361718310339643,-0.11457688393261954,0.5011390975737803,0.191176388543501,0.08306997897475293,0.03970966492481795,-0.9029882894432135
10.11,-79.6276657240149,40.90365715887487,269.90311064423724,284.3613255227609,0,9.393757670112091,208.08523338561238,11.03252422233894,18.996770354807907,0.011172176564215914,0.005349429411971604,0.14026980357641655,0.12423568981382908,-0.04585539786070618,-0.022329618761302756,0.4900975051454442,0.8235374268351296,-86160212142.98174,0.0,-1346230613951.9536,0.7192431492176646,-0.14952859605020524,0.6585276892759628,0.16331495254131495,-0.04585539786070618,-0.022329618761302756,0.4900975051454442
10.21,-79.62543464083744,40.90471721819854,269.92816403077563,284.38463296997674,0,9.404543563826579,208.31900697273568,11.032517958992306,18.997605467692523,0.022310831774632018,0.010600593236702443,0.25053386538388267,0.14562516848067358,0.11138655210415946,0.05251163824730764,1.1026406180746455,1.1514743141548867,-86160212150.16768,0.0,-1346230613951.9497,0.7228369340371112,-0.1477108469927479,0.6550743380385022,0.1629904417931683,0.11138655210415946,0.05251163824730764,1.1026406180746455
10.4,-79.62320710899324,40.90576742758713,269.93506794289914,284.39071332323607,0,9.42415913391567,208.75970075385504,11.032516233014276,18.997835598096636,0.011723851811570757,0.005527417834671463,0.0363363795973951,0.16201136518108322,-0.05572094717400678,-0.026700923168584172,-1.1273551883499375,1.08917636639617,44123772728132.11,0.0,8050329377.762598,0.797555448485628,-0.12590325020208423,0.5622822214785574,0.17858438226389992,-0.05572094717400678,-0.026700923168584172,-1.1273551883499375
10.5,-79.62098303760396,40.90680776388148,269.959853981761,284.4137665851625,0,9.434444991005645,208.9897959256961,11.03251003650456,18.998661799392032,0.022240713892785004,0.01040336294352077,0.24786038861862014,0.14419803848061946,0.10516862081214284,0.04875945108849324,2.1152400902122577,1.1596455032295974,44123772728132.11,0.0,8050329377.762598,0.723477018926764,-0.14569789535696087,0.6553489684615945,0.16084419762527627,0.10516862081214284,0.04875945108849324,2.1152400902122577
10.7,-79.61876253571374,40.90783821414018,269.9857063499236,284.43783188658256,0,9.4542580720486,209.4461108084199,11.03250357341252,18.999523544997455,0.011102509451106397,0.0051522512934809766,0.1292618408129447,0.11953753233096578,-0.05569102220839323,-0.026255558250199058,-0.5929927390283793,1.020887910682379,44123772728132.11,0.0,8050329377.762598,0.7222990275142563,-0.14504717683818708,0.6571357302795122,0.15943043414995578,-0.05569102220839323,-0.026255558250199058,-0.5929927390283793
10.8,-79.61654568228835,40.90885873564001,269.99026965137546,284.4416895883142,0,9.46381831028365,209.6723102387163,11.032502432587156,18.99967565504585,0.02216853425394984,0.01020521499832213,0.045633014518670544,0.1219937535306654,0.11066024802843286,0.05052963704841082,-0.8362882629427296,0.9631565525924654,44123772728132.11,0.0,8050329377.762598,0.837907196041769,-0.11001942149957739,0.5020925491764133,0.1836037302884936,0.11066024802843286,0.05052963704841082,-0.8362882629427296
11.0,-79.61433245621386,40.9098693158765,270.0158433915489,284.4654900376144,0,9.48257315403836,210.120742811271,11.032496039152113,19.00052811305163,0.011066130372441347,0.005052901182445187,0.1278687008672823,0.09523001294184814,-0.05551201940754266,-0.02576156907938481,0.41117843174306024,0.6072117103004422,44123772728132.11,0.0,8050329377.762598,0.7229318666240299,-0.14299113434038377,0.6574179969971816,0.1572406720405377,-0.05551201940754266,-0.02576156907938481,0.41117843174306024
11.1,-79.61212296629579,40.9108699325644,270.02031377733726,284.4692588914512,0,9.491600509133468,210.34295602326654,11.032494921555665,19.000677125911242,0.022094899180729124,0.010006166879037472,0.04470385788351921,0.07866023377007166,0.11028768808287816,0.04953265696592302,-0.8316484298376339,0.6387732081717081,44123772728132.11,0.0,8050329377.762598,0.8399797041401181,-0.10792075512351264,0.499903976920581,0.1813373130528784,0.11028768808287816,0.04953265696592302,-0.8316484298376339
11.31,-79.60991721125787,40.91186058363818,270.0443962171112,284.4916434327422,0,9.51012075599029,210.80520245661052,11.032488900945722,19.00147987390371,0.010503595418667569,0.004717386065608677,0.11467828463791839,0.09601610473914975,-0.05519668458124528,-0.025184670540137014,0.33321155597332813,0.5732099347518972,44123772728132.11,0.0,8050329377.762598,0.7251306617244417,-0.14054300489422147,0.6559696443018087,0.15536091193390497,-0.05519668458124528,-0.025184670540137014,0.33321155597332813
11.41,-79.60771528974104,40.912841217252506,270.0484300207368,284.49499726143756,0,9.518585572674432,211.0232032194721,11.032487892494816,19.00161433402456,0.02201921516828528,0.009806336143256579,0.04033803625588931,0.11670450217784953,0.11515619749617752,0.050889500776479205,-0.7434024838202934,0.6768377893396601,44123772728132.11,0.0,8050329377.762598,0.8507403092678888,-0.10262583818825907,0.482692922161878,0.18087677136039687,0.11515619749617752,0.050889500776479205,-0.7434024838202934
11.6,-79.60551714030238,40.91381181178273,270.0746404995911,284.5194014423767,0,9.534352622539444,211.43359810560466,11.032481339875101,19.00248801665304,0.011569207571869243,0.005108392264331424,0.1379498887068194,0.11303455359592537,-0.05500003998113718,-0.02472602041539562,0.5137465918470019,0.6997933223264644,44123772728132.11,0.0,8050329377.762598,0.7227725265903726,-0.13913090404462367,0.6595419106678128,0.15246945405078852,-0.05500003998113718,-0.02472602041539562,0.5137465918470019
11.7,-79.60332291141403,40.91477235582536,270.0977052665796,284.5408195773323,0,9.542478248138067,211.64757386401845,11.032475573683355,19.003256842219322,0.021942288883565274,0.009605440426341295,0.23064766988511648,0.13897916748102618,0.10373081311696068,0.044970481620098875,0.9269778117829741,1.1067700407420387,44123772728132.11,0.0,8050329377.762598,0.7269780798717876,-0.1371681944837596,0.655391424426901,0.1521507101385724,0.10373081311696068,0.044970481620098875,0.9269778117829741
11.91,-79.60113270146208,40.91572282819855,270.10410133615255,284.546414949337,0,9.558521339111604,212.09233335092716,11.032473974665962,19.003470044538417,0.010429571199752165,0.004526058919922297,0.030457474156805893,0.15520889163245838,-0.054822465161014584,-0.024187530982947514,-0.9532866463252847,1.0728427373398712,44123772728132.11,0.0,8050329377.762598,0.8043424146718967,-0.11591997048365255,0.5583059080642027,0.16700405211687996,-0.054822465161014584,-0.024187530982947514,-0.9532866463252847
12.0,-79.59894640874558,40.91666320794253,270.12602052432106,284.5667453546891,0,9.565338377177664,212.28102409047852,11.032468494868919,19.004200684144035,0.024292141294463655,0.01044866382200226,0.2435465352056734,0.13216131567208927,0.15402855660790568,0.06580672113422192,2.3676562338763096,1.0769107614224198,-99012358764400.67,0.0,-733425911313.1439,0.7289945407025563,-0.1347116170861209,0.6541258826194944,0.1501301752985682,0.15402855660790568,0.06580672113422192,2.3676562338763096
12.2,-79.59676419147539,40.917593474320114,270.1515384486735,284.5904918504274,0,9.57971409712487,212.696166348446,11.032462115387832,19.00505128162245,0.010911086350944326,0.0046513318879348895,0.12758962176207023,0.13825256570008865,-0.06690527471759689,-0.028986659670336954,-0.579784567218018,1.373146270849147,-99012358764400.67,0.0,-733425911313.1439,0.7241574102716839,-0.13479981251164433,0.6599598157460127,0.147912464978184,-0.06690527471759689,-0.028986659670336954,-0.579784567218018
12.4,-79.59458610777321,40.918513606817136,270.1555518283917,284.5938247347645,0,9.593123517182995,213.10549604073105,11.032461112042903,19.00518506094639,0.010890418510882625,0.004600662485110239,0.020066898591153296,0.14124459366193537,-0.0001033392003085045,-0.0002533470141232534,-0.5376136158545818,1.6221767482725593,-99012358764400.67,0.0,-733425911313.1439,0.8509358464068918,-0.09850585998396168,0.48630780865484347,0.1723644281455162,-0.0001033392003085045,-0.0002533470141232534,-0.5376136158545818
12.5,-79.59241208567043,40.91942358514288,270.18168018426684,284.61815050229836,0,9.599786040553841,213.30795839382168,11.032454579953933,19.00605600614223,0.021740221027784022,0.009099783257440241,0.26128355875130277,0.11785025294503867,0.10849802516901436,0.04499120772330019,2.4121666016015033,1.2344818995834084,-99012358764400.67,0.0,-733425911313.1439,0.7237329047941846,-0.1328352401834124,0.6613902238614179,0.14535629764179586,0.10849802516901436,0.04499120772330019,2.4121666016015033
12.6,-79.5902423231071,40.920323389230575,270.1858053387151,284.62158903684764,0,9.606038736568184,213.50894039868865,11.032453548665321,19.006193511290505,0.021697625633265792,0.008998040876946365,0.04125154448274785,0.10172406091938366,-0.00042595394518230175,-0.001017423804938765,-2.200320142685557,1.2913462069509578,-99012358764400.67,0.0,-733425911313.1439,0.8478824159534261,-0.09815164000052731,0.49290509844463876,0.16883787551811072,-0.00042595394518230175,-0.001017423804938765,-2.200320142685557
12.8,-79.58807673793095,40.921212979237794,270.2112993157935,284.64531246529293,0,9.618144713736385,213.90642769994,11.03244717517105,19.00704331052645,0.010827925880789678,0.004447950036094971,0.12746988539191695,0.12303957398141711,-0.054348498762380286,-0.02275045420425685,0.4310917045458432,1.272561178498669,-99012358764400.67,0.0,-733425911313.1439,0.7247471596877223,-0.1305223160522832,0.6612412280162444,0.14305774326647333,-0.054348498762380286,-0.02275045420425685,0.4310917045458432
12.9,-79.58591549789617,40.92209237554691,270.2154377412153,284.6487631866818,0,9.623824505824299,214.10291533028746,11.032446140564696,19.00718125804051,0.021612400347805837,0.0087939630911649,0.04138425421786011,0.11859155627338709,0.10784474467016197,0.04346013055069945,-0.8608563117405715,1.0100425569576432,-99012358764400.67,0.0,-733425911313.1439,0.8473934061484407,-0.0968567193769655,0.49502886620318093,0.16579991783251502,0.10784474467016197,0.04346013055069945,-0.8608563117405715
13.1,-79.58375854066256,40.922961538765534,270.2413070423655,284.6728428152707,0,9.634782973649124,214.491334887058,11.032439673239407,19.00804356807885,0.010784786168045495,0.004345816093120918,0.12934650575118714,0.11581542162891645,-0.0541380708988019,-0.02224073499021999,0.43981125766663676,0.7777449807686967,-99012358764400.67,0.0,-733425911313.1439,0.7245868807338441,-0.12843650869830986,0.6623727417071399,0.1405000588795371,-0.0541380708988019,-0.02224073499021999,0.43981125766663676
13.2,-79.58160594379426,40.92382043972694,270.265205348316,284.69505142510604,0,9.64008225371969,214.6832495504536,11.03243369866292,19.0088401782772,0.02152596868299391,0.008589009614041774,0.23898305950467688,0.13466328972406455,0.10741182514948454,0.04243193520920871,1.0963655375349013,1.0360845457003396,-99012358764400.67,0.0,-733425911313.1439,0.7271473021610985,-0.12681916813820127,0.6600409163795661,0.13971287792252188,0.10741182514948454,0.04243193520920871,1.0963655375349013
13.4,-79.57945786475892,40.92466907949048,270.2715137898406,284.70056167764534,0,9.649684221289045,215.06244600009956,11.032432121552539,19.009050459661353,0.010740395176682625,0.004243198817697169,0.03154220762297638,0.1529317624586622,-0.053927867531556144,-0.02172905398172291,-1.037204259408497,0.9501437639744758,-99012358764400.67,0.0,-733425911313.1439,0.8052333297837672,-0.1071230063022358,0.5626936109741297,0.15329659583634872,-0.053927867531556144,-0.02172905398172291,-1.037204259408497
13.51,-79.5773141509265,40.92550743934199,270.2958521994301,284.72318803156696,0,9.654842275225526,215.26835139763472,11.032426036950142,19.009861739981005,0.019488307567495644,0.007621453195580172,0.2212582689956198,0.1363320056861533,0.07952647628011876,0.03071140343530019,1.7246914670240399,1.0574122833113617,29420767202540.99,0.0,766215329929.4183,0.7268352071959024,-0.1247183353828504,0.661337803405046,0.1370701579017439,0.07952647628011876,0.03071140343530019,1.7246914670240399
13.7,-79.57517500956824,40.92633548079425,270.32213401130696,284.7476594286895,0,9.663037462910298,215.61953260223407,11.032419466497172,19.010737800376898,0.011258638727664895,0.004358112906625209,0.13832532566766567,0.11493182113276476,-0.04331404652542511,-0.01717547520502617,-0.436489175410286,0.9293380449113042,7634082453.486422,0.0,-794680608848.6879,0.72467256866177,-0.12406361106283603,0.6641797128264434,0.13536320662936802,-0.04331404652542511,-0.01717547520502617,-0.436489175410286
13.8,-79.57304047785574,40.927153195587344,270.32622576143996,284.7510649216444,0,9.666969318359119,215.80207290163648,11.03241844355964,19.010874192047996,0.021345317124996353,0.008177147930936596,0.04091750132999947,0.11752320995770564,0.10086678397331314,0.03819035024311333,-0.9740782433766482,0.906912162404159,-176772043583.187,0.0,7004414620.786524,0.8480774657284,-0.09206377781755844,0.49767042224323405,0.15688538415637968,0.10086678397331314,0.03819035024311333,-0.9740782433766482
14.0,-79.57091049285971,40.927960575689056,270.35274878755854,284.7757653497512,0,9.674426947852506,216.16237186624852,11.03241181280311,19.011758292918618,0.010649924980157304,0.0040369005085594415,0.13261513059291066,0.10002098158557637,-0.05347696072419543,-0.020701237111885845,0.4584881463145576,0.6558645035739653,-176772043586.08258,0.0,7004414621.069949,0.7246821984224023,-0.12182753642270806,0.6651121330092973,0.13273889099533126,-0.05347696072419543,-0.020701237111885845,0.4584881463145576
14.1,-79.56878523154917,40.92875758329534,270.35681252916726,284.77914400719,0,9.677768327319374,216.34011451823014,11.032410796867708,19.01189375097224,0.02125261310538925,0.007970076062804338,0.040637416087179336,0.0806305548001098,0.10602688125231984,0.0393317555424491,-0.9197771450573166,0.746508919633292,-176772043576.68463,0.0,7004414621.064687,0.8486089626854216,-0.0903121012314281,0.49802099383607173,0.15388840930904543,0.10602688125231984,0.0393317555424491,-0.9197771450573166
14.3,-79.56666461079023,40.929544190830626,270.38366432756,284.8041566412853,0,9.684045763949957,216.69074666367496,11.03240408391811,19.012788810918664,0.01060310379472179,0.003933037676446795,0.13425899196363317,0.09996024628854047,-0.053247546553337015,-0.020185191931787607,0.4681078793822667,0.6629599019800843,-176772043568.9473,0.0,7004414620.777422,0.724604907722294,-0.11956538929152896,0.6661352692799872,0.13006017226503183,-0.053247546553337015,-0.020185191931787607,0.4681078793822667
14.41,-79.56454881734513,40.93032041094825,270.3876846258338,284.8074938529005,0,9.687053398557447,216.88081797993723,11.032403078843542,19.012922820861128,0.019234485864542933,0.007056546523836558,0.03654816612559214,0.12280251457646138,0.07846710972564716,0.02839553497627072,-0.8882802348912866,0.7781643988205467,-184406126019.6641,0.0,801685023469.6117,0.8495393797751503,-0.0884116798773939,0.4976848567637455,0.15091719723265604,0.07846710972564716,0.02839553497627072,-0.8882802348912866
14.6,-79.56243774787123,40.93108622653084,270.4148603689029,284.8328141707006,0,9.691885330512319,217.20444565163936,11.032396284907774,19.01382867896343,0.011110891967883934,0.00403060832941774,0.14303022667951718,0.12008734089466508,-0.04275575735083695,-0.015925990496941187,0.5604318976522384,0.8083874115602567,-184406126019.6641,0.0,801685023469.6117,0.7245395482658458,-0.11726706811159616,0.6671364337333345,0.12735720050630278,-0.04275575735083695,-0.015925990496941187,0.5604318976522384
14.7,-79.5603315289199,40.93184160069067,270.4394904035122,284.85571782838946,0,9.694243603590284,217.37238167213866,11.032390127399122,19.014649680117074,0.021062189513259076,0.007553741598300716,0.2463003460928812,0.14076683886953778,0.09951297545375178,0.035231332688829886,1.032701194133644,1.1267980705944438,-184406126019.6641,0.0,801685023469.6117,0.7274842200343951,-0.11553560788360837,0.6643900062882123,0.12650751936648716,0.09951297545375178,0.035231332688829886,1.032701194133644
14.9,-79.55823028693561,40.93258653677007,270.44569627825086,284.8611298201409,0,9.697932466868796,217.70326335739577,11.032388575930437,19.014856542608364,0.010506209921459175,0.003724680396999227,0.031029373693342965,0.15822948307135587,-0.05277989795899922,-0.019145306006507344,-1.0763548619976855,1.0572878404459947,-184406126019.6641,0.0,801685023469.6117,0.8061106626181074,-0.0975265403377596,0.5669625404600566,0.13866380659069608,-0.05277989795899922,-0.019145306006507344,-1.0763548619976855
15.0,-79.5561339182548,40.93332099834175,270.46940564356566,284.88315956047006,0,9.699684029643766,217.86619431635535,11.032382648589108,19.015646854785523,0.020963686808102084,0.007344615716817797,0.23709365314800918,0.13720761085713415,0.10457476886642945,0.036199353198185825,2.0606427945466694,1.1406436617363624,-184406126019.6641,0.0,801685023469.6117,0.7288809621005324,-0.11291368660845276,0.6637848187815947,0.12398692196750354,0.10457476886642945,0.036199353198185825,2.0606427945466694
15.2,-79.5540425291049,40.9340449792092,270.49515315177433,284.9071245154891,0,9.70237181946891,218.1870002605127,11.032376211712055,19.016505105059146,0.010456945749481897,0.0036199043372420322,0.128737541043336,0.11414040982758941,-0.05253370529310112,-0.01862355689787889,-0.5417805605233678,1.0337087694515872,-184406126019.6641,0.0,801685023469.6117,0.7265585742460545,-0.11214658930362015,0.6667855639591713,0.12219980520751846,-0.05253370529310112,-0.01862355689787889,-0.5417805605233678
15.3,-79.55195625560336,40.93475847340701,270.49829805707833,284.90963031660687,0,9.703318871113735,218.34486098772135,11.03237542548573,19.016609935235945,0.020862735015469685,0.007134941978108498,0.03144905303997758,0.11496915886144703,0.1040578926598764,0.03515037640866416,-0.9728848800335704,1.0224022691734003,-184406126019.6641,0.0,801685023469.6117,0.8751352456073431,-0.07569142779300925,0.4552321730265429,0.14550868804288883,0.1040578926598764,0.03515037640866416,-0.9728848800335704
15.5,-79.54987501375653,40.935461445201256,270.5246022155759,284.93412400470993,0,9.704813550534473,218.65546287267864,11.032368849446106,19.017486740519196,0.010406209234119538,0.0035148589712363913,0.13152079248783413,0.09342839332359829,-0.05228262890675092,-0.0181004150343606,0.5003586972392845,0.7102772344574727,-184406126019.6641,0.0,801685023469.6117,0.7262037627887078,-0.10978129461405567,0.6680839074152757,0.1193317012244502,-0.05228262890675092,-0.0181004150343606,0.5003586972392845
15.6,-79.54779895945872,40.936153899089824,270.5275997852747,284.93648987261383,0,9.705159438312679,218.80819022595023,11.03236810005368,19.017586659509156,0.020760542978166614,0.0069245388856842525,0.029975696987776353,0.0741709460697274,0.10354333744047113,0.03409679914447873,-1.0154509550005812,0.7904426629072134,-184406126019.6641,0.0,801685023469.6117,0.880006431701252,-0.07259805599064707,0.4471022831141521,0.14289069551556227,0.10354333744047113,0.03409679914447873,-1.0154509550005812
15.8,-79.54572797849116,40.936835779802784,270.55359412610414,284.96068967112524,0,9.705451234258522,219.1084638150948,11.032361601468473,19.018453137536806,0.010354904837797052,0.003409403564802442,0.12997170414735068,0.09453483169458182,-0.05202819070184753,-0.01757567660440896,0.499980035797869,0.7143401916889064,-184406126019.6641,0.0,801685023469.6117,0.7267762787975874,-0.10720108702597546,0.668367981782026,0.11656932892575911,-0.05202819070184753,-0.01757567660440896,0.499980035797869
15.91,-79.543662316521,40.93750713230266,270.5564922999282,284.9629611556091,0,9.70515674847293,219.2706541433393,11.032360876925017,19.01854974333094,0.018778745183309197,0.006103204544351922,0.026347034764223252,0.11456199296532273,0.07658036677738353,0.02448909981408631,-0.9420424489375269,0.7807285170825164,-184406126019.6641,0.0,801685023469.6117,0.8833313039221331,-0.0700017370245919,0.44186197565008023,0.139941269107336,0.07658036677738353,0.02448909981408631,-0.9420424489375269
16.1,-79.5416018291003,40.93816789178484,270.5830475705572,284.9876938473756,0,9.704293744548353,219.54582189342418,11.032354238107361,19.019434919018572,0.010844670635223217,0.0034776814851586076,0.13976458225783878,0.1119284373258405,-0.04175828709518909,-0.013818542416806827,0.5969344604927093,0.7978787093638676,-184406126019.6641,0.0,801685023469.6117,0.7264273978218599,-0.10474387887369564,0.6696425011380529,0.11362603663697327,-0.04175828709518909,-0.013818542416806827,0.5969344604927093
16.21,-79.53954662166505,40.938818063677864,270.60848900375976,285.0113692857338,0,9.703565010561551,219.70223234012272,11.032347877749059,19.02028296679199,0.018683703956800166,0.005910653572917918,0.23128575638690105,0.13722314745331884,0.07126393928706355,0.022117928070539302,0.8320106739005704,1.1675088477521451,-184406126019.6641,0.0,801685023469.6117,0.7277271095876229,-0.10324729006706382,0.6686758001302148,0.11236514310616241,0.07126393928706355,0.022117928070539302,0.8320106739005704
16.4,-79.53749688953413,40.939457653643736,270.6125003672751,285.01469779549194,0,9.701337766311099,219.96736217026677,11.03234687490818,19.02041667890917,0.010788063846988816,0.003366262978270163,0.021112439554527854,0.15631249626590377,-0.04155600057795497,-0.01339152944551466,-1.1061753517493458,1.1008270434769678,-184406126019.6641,0.0,801685023469.6117,0.8480906685748214,-0.07741362266466471,0.5079815275272296,0.12924440642963178,-0.04155600057795497,-0.01339152944551466,-1.1061753517493458
16.5,-79.5354524479083,40.940086587578264,270.63810133082444,285.03852507660343,0,9.700111070216082,220.1043312027646,11.032340474667294,19.021270044360815,0.020444416258271467,0.006289339345286659,0.25600963549322475,0.13576855781018715,0.09656352411282514,0.02923076367016455,2.348971959386936,1.2026958263280363,-184406126019.6641,0.0,801685023469.6117,0.727776988651519,-0.10065291432585488,0.6695060665870115,0.10941331011456903,0.09656352411282514,0.02923076367016455,2.348971959386936
16.71,-79.53341344186926,40.94070490161135,270.6649750661221,285.06356115628074,0,9.69661737315813,220.3861572640814,11.032333756233468,19.022165835537404,0.009709552566862671,0.002944352538492,0.12797016808414238,0.1148045480996998,-0.05111839853051787,-0.015928508603784027,-0.6097117495670564,1.129584894616217,-184406126019.6641,0.0,801685023469.6117,0.7265744074609419,-0.09953759311819052,0.671247789753097,0.10774183370725049,-0.05111839853051787,-0.015928508603784027,-0.6097117495670564
16.8,-79.5313800463786,40.94131259210731,270.66760024688773,285.0655737058671,0,9.69476240686503,220.5045198979427,11.032333099938278,19.022253341562923,0.022593283229513098,0.006752116621792473,0.029168675173549617,0.11673499496673882,0.1431525629183383,0.04230848981444977,-1.0977943656732545,1.110798513846359,-184406126019.6641,0.0,801685023469.6117,0.8929118444619032,-0.06234574221067705,0.42634760662321686,0.13057245028908882,0.1431525629183383,0.04230848981444977,-1.0977943656732545
17.01,-79.52935207627688,40.941909605665174,270.69424834885643,285.09039600271217,0,9.690013423783132,220.775021494724,11.032326437912786,19.023141611628546,0.009657000484388632,0.002842921704119091,0.1268957236604923,0.09361763126826093,-0.06160134640535435,-0.018615213893682696,0.46536689755686794,0.7617674542596524,-184406126019.6641,0.0,801685023469.6117,0.7270214776176845,-0.09680665118721667,0.6716302406601031,0.1047905682748553,-0.06160134640535435,-0.018615213893682696,0.46536689755686794
17.11,-79.52732979628253,40.94249597911898,270.6968666497905,285.0924021708423,0,9.687343775459846,220.90102607307088,11.032325783337551,19.02322888832635,0.02022279994349717,0.005863734538067558,0.02618300934045748,0.07376812811797792,0.10565799459108761,0.030208128339485316,-1.0071271432003697,0.8558406206857148,-184406126019.6641,0.0,801685023469.6117,0.8928891613342297,-0.06076291875992792,0.4277488612867456,0.1268373956825145,0.10565799459108761,0.030208128339485316,-1.0071271432003697
17.3,-79.52531301099097,40.94307163953806,270.7236344294899,285.1173385879724,0,9.681944023696332,221.13542212361364,11.032319091392628,19.024121147649666,0.010614659429258513,0.003029791679372337,0.14088305104953658,0.09466516931279796,-0.05056916060125575,-0.014915488729974748,0.6036844300477807,0.7603227444925448,-184406126019.6641,0.0,801685023469.6117,0.7271213783714187,-0.09408121976738043,0.6723778495092785,0.10174110620397232,-0.05056916060125575,-0.014915488729974748,0.6036844300477807
17.41,-79.52330203487358,40.94363663422732,270.7260634698026,285.119165243624,0,9.67836121181027,221.26811091169353,11.03231848413255,19.02420211566009,0.01828160106718076,0.005136315356873499,0.02208218466121677,0.1201996165592677,0.06969946943565715,0.019150215250010667,-1.0800078762574583,0.8923159115966073,-184406126019.6641,0.0,801685023469.6117,0.9003402568875657,-0.05694562233860388,0.41321886287599213,0.12407574012502738,0.06969946943565715,0.019150215250010667,-1.0800078762574583
17.6,-79.5212966222767,40.94419089072753,270.75296185463577,285.14422620358687,0,9.671838252821594,221.49206935496062,11.032311759536341,19.02509872848786,0.010554803141509998,0.0029171394748205037,0.14157044649024053,0.11812465565826513,-0.040667357503530045,-0.01167987306343674,0.628885588573805,0.9232437988036404,-184406126019.6641,0.0,801685023469.6117,0.7272065411971801,-0.09130822974623884,0.6731291680932947,0.09864368546780443,-0.040667357503530045,-0.01167987306343674,0.628885588573805
17.7,-79.51929695742068,40.94473442681561,270.778374169965,285.16787649385486,0,9.66823268727574,221.6072705583609,11.032305406457509,19.0259458056655,0.01999664856015258,0.005435360880739043,0.2541231532922038,0.13423614249150703,0.09441845418642783,0.025182214059185925,1.1255270680196567,1.1665065717568943,-184406126019.6641,0.0,801685023469.6117,0.7288158023136718,-0.08967592587478819,0.6718044129045072,0.09728610084903573,0.09441845418642783,0.025182214059185925,1.1255270680196567
17.9,-79.51730326439896,40.94526726050486,270.7825354038452,285.1713483315097,0,9.6599671980035,221.83212031178587,11.032304366149038,19.026084513461505,0.009968465108585213,0.002664168446280267,0.02080616940105536,0.1557777749010703,-0.05014091725783701,-0.013855962172293929,-1.1665849194557463,1.0395431292189208,17.287141055866787,0.0,-0.1773129973056676,0.8425572807652469,-0.06863464021223761,0.5226311439085326,0.11064900455615552,-0.05014091725783701,-0.013855962172293929,-1.1665849194557463
18.01,-79.51531521717696,40.9457893000453,270.80685464642,285.1939612596627,0,9.655308430259389,221.95262027996372,11.032298286338394,19.026895154880666,0.018073156563631534,0.00474581400395496,0.22108402340718197,0.13464498355221832,0.07367901322769183,0.018924050524314878,1.8207077636920106,1.1270210039632804,5.326395654593071,0.0,0.170809782576616,0.7302202265318671,-0.08664387354294838,0.6711060418683493,0.09427587448026835,0.07367901322769183,0.018924050524314878,1.8207077636920106
18.2,-79.5133330795912,40.94630059392381,270.83277208993167,285.21809218152845,0,9.64654597866023,222.15543897824057,11.032291806977517,19.02775906966439,0.010432303082926702,0.002691020413212368,0.1364075974298614,0.10897071270445521,-0.04021501831949959,-0.010814703109171665,-0.44566539988063997,0.9977283352114833,5.326395654593071,0.0,0.170809782576616,0.7285743880814974,-0.08544058552397553,0.6732988539502767,0.09245496550340555,-0.04021501831949959,-0.010814703109171665,-0.44566539988063997
18.3,-79.5113570253484,40.946801150864495,270.8357792287307,285.22046863949754,0,9.641546575953903,222.25947103435806,11.032291055192816,19.027859307624357,0.019760542428030877,0.005005569406861738,0.030071387990346494,0.11147804007970252,0.09328239345104042,0.023145489936493374,-1.0633620943951338,0.9586033842672089,5.326395654593071,0.0,0.170809782576616,0.876700796366829,-0.05796075312381906,0.4648515573156584,0.10931282819639523,0.09328239345104042,0.023145489936493374,-1.0633620943951338
18.5,-79.50938678802433,40.94729088982889,270.8610167592846,285.24395456958837,0,9.631160573543445,222.46189603116898,11.032284745810179,19.02870055864282,0.009851186620366582,0.0024486948219859615,0.12618765276954536,0.09383572428749308,-0.04954677903832165,-0.01278437292437893,0.48058132389599606,0.6984221079327064,5.326395654593071,0.0,0.170809782576616,0.729463709940264,-0.08240683071751922,0.6731396156051583,0.08930211662788405,-0.04954677903832165,-0.01278437292437893,0.48058132389599606
18.6,-79.50742273106303,40.94776988001621,270.86396658018765,285.24627695911425,0,9.625582231959704,222.56027997522926,11.032284008354953,19.028798886006257,0.01964056961298838,0.004789901873181112,0.029498209030407032,0.07772743987515389,0.09789382992621658,0.02341207051195117,-0.9668944373913695,0.7714928090675256,5.326395654593071,0.0,0.170809782576616,0.8783595552893263,-0.055626558761149254,0.4628686631258252,0.10555935907554971,0.09789382992621658,0.02341207051195117,-0.9668944373913695
18.8,-79.50546454777574,40.948238030863564,270.8906227921698,285.27111071315915,0,9.614058616464888,222.75136889183602,11.032277344301956,19.02968742640566,0.009790916436429632,0.0023407542367692795,0.13328105991064423,0.11318554153823061,-0.04924826588279391,-0.012245738182059204,0.5189142544011879,0.7190546955674642,5.326395654593071,0.0,0.170809782576616,0.7282100760264859,-0.07959960069971185,0.6752819636104995,0.0858385598917747,-0.04924826588279391,-0.012245738182059204,0.5189142544011879
18.9,-79.50351266134003,40.948695442046215,270.89588279810465,285.275627246461,0,9.607930057710307,222.8440653715732,11.032276029300473,19.029862759936822,0.019518864357195714,0.004574111826514224,0.05260005934872082,0.17466282298863672,0.09727947920766289,0.022333575897449918,-0.8068100056192513,1.0631191417590764,5.326395654593071,0.0,0.170809782576616,0.8180030425715726,-0.06515918379011375,0.5636334127680382,0.09456573968890836,0.09727947920766289,0.022333575897449918,-0.8068100056192513
19.1,-79.50156681479875,40.949142013477804,270.9385601030191,285.31567553912134,0,9.595425463610212,223.02374177495693,11.032265359974245,19.031285336767304,0.009729232706376795,0.00223285715794216,0.2133865245721692,0.24261346379338908,-0.048948158254093904,-0.011706273342860151,0.8039323261172304,0.9276886521941512,5.326395654593071,0.0,0.170809782576616,0.7188419171025043,-0.07770842979501041,0.6860007893382118,0.08142858946672515,-0.048948158254093904,-0.011706273342860151,0.8039323261172304
19.2,-79.49962714105915,40.94957773531057,270.981912714101,285.3563660591092,0,9.589110074511659,223.11071371301512,11.032254521821475,19.032730423803365,0.01939673739599398,0.004357218327655325,0.4335261108190117,0.2985618658444578,0.09667504689617393,0.0212436116971321,2.201395862468472,0.9010313900146368,5.326395654593071,0.0,0.170809782576616,0.7187122310624952,-0.07615867234054216,0.6865096778733887,0.07973109640957378,0.09667504689617393,0.0212436116971321,2.201395862468472
19.4,-79.49769399289195,40.950002827935556,271.05698944070764,285.4271844209225,0,9.575799922451477,223.27890573501014,11.032235752639822,19.03523298135692,0.009665740835984628,0.002125463124933454,0.3753836330332674,0.3487331172878777,-0.04865498280004694,-0.011158776013609395,-0.2907123889287227,0.8448428568712429,5.326395654593071,0.0,0.170809782576616,0.7121728521201636,-0.07536471511110635,0.6936444765917705,0.07737782959596477,-0.04865498280004694,-0.011158776013609395,-0.2907123889287227
19.5,-79.49576690293033,40.95041697198285,271.0982826943736,285.4659217586275,0,9.568902256951475,223.36011834377368,11.032225429326406,19.036609423145787,0.01927089961625911,0.0041414404729067066,0.41293253665969,0.337510265771234,0.09605158780274346,0.02015977347973224,0.3754890362642207,0.9857732332420419,5.326395654593071,0.0,0.170809782576616,0.7197174544177637,-0.07290024638755625,0.6861820016614522,0.07646306610992423,0.09605158780274346,0.02015977347973224,0.3754890362642207
19.7,-79.49384640366902,40.950820428321734,271.1596807888186,285.52375346947366,0,9.554338420270977,223.5167587098137,11.032210079802795,19.038656026293953,0.009602496306513365,0.0020172816944352763,0.30699047222498277,0.32151439218417704,-0.0483420165487289,-0.01062079389235719,-0.529710322173538,0.7428729803475125,5.326395654593071,0.0,0.170809782576616,0.7144661271757665,-0.07190202193907316,0.6919950409125081,0.07423688915916916,-0.0483420165487289,-0.01062079389235719,-0.529710322173538
19.8,-79.49193190746337,40.951212758060976,271.1753096399552,285.5381193869959,0,9.54662900696317,223.59217950532195,11.03220617259001,19.03917698799851,0.019144962056571742,0.003923297392418534,0.15628851136568533,0.31064477291966985,0.0954246575005824,0.01906015697983231,-1.507019608592953,0.7531921501612736,5.326395654593071,0.0,0.170809782576616,0.7458668874328316,-0.0667688144066975,0.6584097807240609,0.07563777033253898,0.0954246575005824,0.01906015697983231,-1.507019608592953
20.0,-79.49002407652844,40.95159442254893,271.2460833658961,285.6048577226492,0,9.531055687310324,223.73720556134907,11.032188479158526,19.041536112196535,0.009539154674627105,0.0019083224397675803,0.3538686297045514,0.3116732938257467,-0.048029036909723356,-0.010074874763254806,0.9879005916943339,0.7739068153457656,5.326395654593071,0.0,0.170809782576616,0.7132667898400334,-0.06872976378312637,0.6939279254266699,0.07064517247942165,-0.048029036909723356,-0.010074874763254806,0.9879005916943339
20.1,-79.488122682938,40.951965093373786,271.2781414869612,285.63482830580455,0,9.522962541520014,223.80680437628936,11.03218046462826,19.042604716232038,0.01901393590443918,0.003706708248571947,0.32058121065119394,0.33405685089508913,0.09474781229811939,0.01798385808804341,-0.33287419053357,0.6866262495992964,5.326395654593071,0.0,0.170809782576616,0.724748754716045,-0.06588368343457698,0.6822761006502673,0.06998503608701348,0.09474781229811939,0.01798385808804341,-0.33287419053357
20.3,-79.48622777862369,40.952324962363754,271.36182832568534,285.71383445426125,0,9.506429765559973,223.94015811381485,11.032159542918578,19.045394277522846,0.009474521571561955,0.0017993449498376953,0.41843419362067075,0.39529792013023174,-0.04769707166438629,-0.009536816493671291,0.48926491484738577,0.46604418413033494,5.326395654593071,0.0,0.170809782576616,0.7120600596815104,-0.06548943032050289,0.6958379381464121,0.06701619027376662,-0.04769707166438629,-0.009536816493671291,0.48926491484738577
20.4,-79.484339415374,40.952673841587206,271.40369080682416,285.7531191267035,0,9.497894209975001,224.00390710958922,11.032149077298294,19.046789693560804,0.018883632496909233,0.003488792234520662,0.4186248113882219,0.4146778726813071,0.09409110925347479,0.016894472846830027,0.0019061776755114185,0.2835786074936415,5.326395654593071,0.0,0.170809782576616,0.720111698867949,-0.06300644574270509,0.6878358956520919,0.06596294111751279,0.09409110925347479,0.016894472846830027,0.0019061776755114185
20.51,-79.48245730483342,40.95301186335288,271.4546631573614,285.8010572929553,0,9.488348336249008,224.0717720395872,11.032136334210659,19.048488771912044,0.01711009582343355,0.0030729251424655053,0.4633850048838252,0.40594002601782037,-0.016123060667960327,-0.00378060992777405,0.4069108499600193,0.38774278526893025,817063903172.1819,0.0,-553943146863.49,0.7173979214679497,-0.06155743467465396,0.6909894419796369,0.06391005853863285,-0.016123060667960327,-0.00378060992777405,0.4069108499600193
20.7,-79.48058222850152,40.95333902021006,271.54031340651494,285.8819349542643,0,9.471331260063305,224.1834088667562,11.03211492164837,19.051343780217167,0.009868822799469039,0.0017218781956941057,0.45079078501873876,0.5302812754935042,-0.03811196328402419,-0.007110773404060083,-0.06628536771098219,1.8150541411256789,817063903172.1819,0.0,-553943146863.49,0.7122538567330097,-0.06031471366770293,0.696601315505441,0.06166997746250026,-0.03811196328402419,-0.007110773404060083,-0.06628536771098219
20.9,-79.47871363773194,40.9536551549487,271.5957763857436,285.9341419674011,0,9.452386930748661,224.29326263823438,11.032101055903563,19.053192546191454,0.009342953847877344,0.001580673693197815,0.27731489614325355,0.5172770691237716,-0.0026293447579584838,-0.000706022512481456,-0.8673794443774291,3.1690012069714832,817063903172.1819,0.0,-553943146863.49,0.7165558745941762,-0.05816563288282352,0.6924896779945666,0.06018707175878281,-0.0026293447579584838,-0.000706022512481456,-0.8673794443774291
21.0,-79.4768516637317,40.95396031059964,271.6997844287526,286.0324626229191,0,9.443416577585273,224.3452378494807,11.032075053892811,19.05665948095842,0.01861974000249207,0.0030515565094190854,1.0400804300900142,0.48923058304444134,0.09276786154614595,0.014708828162212495,7.6276553394674975,3.11919267887646,817063903172.1819,0.0,-553943146863.49,0.7111385697278542,-0.05684688158748893,0.6983547840869356,0.057887496422710946,0.09276786154614595,0.014708828162212495,7.6276553394674975
21.1,-79.47499660755994,40.9542545404347,271.7351389714996,286.0655725574026,0,9.433587048984613,224.39524216856668,11.032066215257124,19.057837965716654,0.018550561717489436,0.002942298350561104,0.3535454274702892,0.4364323298426262,-0.0006917828500263469,-0.0010925815885798,-6.865350026197152,3.3791824321718322,817063903172.1819,0.0,-553943146863.49,0.7233777246822125,-0.05406264855088472,0.685967667739856,0.057011018941878426,-0.0006917828500263469,-0.0010925815885798,-6.865350026197152
21.3,-79.4731483701274,40.95453791796687,271.7998076522006,286.1265295768775,0,9.413353756789146,224.4893293283274,11.03205004808695,19.059993588406687,0.009241187162700759,0.0014168876608522446,0.32334340350502205,0.489666055887746,-0.04654687277394355,-0.007627053448544323,-0.15101011982633636,3.563412692785807,817063903172.1819,0.0,-553943146863.49,0.71517819973932,-0.05295491949292949,0.694798370728898,0.05450819343540346,-0.04654687277394355,-0.007627053448544323,-0.15101011982633636
21.4,-79.47130694219524,40.95481024695043,271.81840581133497,286.1437241095459,0,9.402844921386642,224.53340798736608,11.032045398547165,19.0606135270445,0.018414279321632813,0.0027232898356289196,0.18598159134342437,0.3375514184445275,0.0917309215893225,0.01306402174776703,-1.3736181216160062,2.3018061452712586,817063903172.1819,0.0,-553943146863.49,0.7394846378686181,-0.04921385316963702,0.66916566543784,0.05438546875452171,0.0917309215893225,0.01306402174776703,-1.3736181216160062
21.6,-79.46947231437426,40.955071671381106,271.9271190916509,286.24652490994185,0,9.382038112473875,224.61562566862588,11.032018220227087,19.06423730305503,0.009173139104916442,0.0013071221533777857,0.5435664015797592,0.6096986047873182,-0.0462057010835812,-0.0070808384112555686,1.7879240511816488,3.7991050550683845,-1500766980835.5352,0.0,614176339558.7781,0.7113221682553926,-0.049572843458314225,0.6993000911809646,0.050425079218569806,-0.0462057010835812,-0.0070808384112555686,1.7879240511816488
21.8,-79.46764463712398,40.95532205549618,271.9830243381707,286.2991625502589,0,9.360038138624455,224.68991180060564,11.032004243915457,19.066100811272356,0.009138386251379449,0.0012519205753847064,0.2795262325989266,0.7745166483047701,-0.00017376426768496843,-0.0002760078899653977,-1.3202008449041678,4.798802033174909,1127077261603.8613,0.0,1203781117173.883,0.7170077706244625,-0.047298730525328604,0.693738366796796,0.048885226694211,-0.00017376426768496843,-0.0002760078899653977,-1.3202008449041678
21.9,-79.46582402075175,40.955561623774656,272.1544924981951,286.4615907973808,0,9.350226709833542,224.72407635352403,11.03196137687545,19.071816416606502,0.018206163722283397,0.00239568278473717,1.7146816002440712,1.0430818344533697,0.09067777470904143,0.011437622093524879,14.35155367645175,4.905789405395045,1794813014876.739,0.0,607241505535.539,0.7093622614046371,-0.04597589329016702,0.7018061375327332,0.046470901136697475,0.09067777470904143,0.011437622093524879,14.35155367645175
22.01,-79.46401011541185,40.95579004093732,272.2807118213085,286.5810385762081,0,9.338622115317586,224.75936147849427,11.031929822044672,19.07602372737695,0.016490048544555113,0.002076519660608778,1.147448391939871,1.2940104225872175,-0.015601047070256705,-0.002901482946621666,-5.156665530038044,5.085359849983471,897406507438.3688,0.0,303620752767.30884,0.710812390949926,-0.04393769136311094,0.7005911518451171,0.044578718084548795,-0.015601047070256705,-0.002901482946621666,-5.156665530038044
22.21,-79.46220340110463,40.956007451946924,272.58665375938295,286.8712605394625,0,9.317787581159998,224.81734819391818,11.031853336560154,19.086221791979433,0.009033571536107876,0.001087055048003553,1.529709690372277,1.6816711595927116,-0.03728238504223632,-0.0049473230630261425,1.9113064921620373,5.263270472277969,0.03270226911426137,0.0,-0.7778861248762743,0.7079354950672123,-0.042189932631454465,0.7037372043864071,0.042441625450714844,-0.03728238504223632,-0.0049473230630261425,1.9113064921620373
22.31,-79.46040374767561,40.956213902008244,272.7664734665825,287.04166294865024,0,9.307399413942523,224.84335436165958,11.031808381633354,19.092215782219416,0.017996534290177054,0.002064500613201447,1.7981970719955982,1.8411814983950052,0.08962962754069369,0.009774455651979149,2.684873816233268,2.6872558223262324,0.12670616631243964,0.0,-0.7828696712620135,0.7095007242346768,-0.04015616909212894,0.7023894001132376,0.04056272923361657,0.08962962754069369,0.009774455651979149,2.684873816233268
22.5,-79.45861109481461,40.95640928656822,273.18788619936754,287.4416801802489,0,9.288025255769519,224.88727439718247,11.031703028450158,19.106262873312254,0.009435015057889703,0.0010283397893311617,2.217961751500139,2.1099029986633817,-0.04506062753835417,-0.005453478020369886,2.2092877868659886,1.6966524541451034,0.19131913484825464,0.0,-0.631954287183226,0.7075743294103269,-0.03828191610091124,0.7045530230410777,0.03844607890081453,-0.04506062753835417,-0.005453478020369886,2.2092877868659886
22.7,-79.45682541205483,40.95659361131604,273.69034931649816,287.9188027444388,0,9.267613398223489,224.92572553980804,11.031577412670876,19.123011643883274,0.008928413798940969,0.0009216237391029868,2.512315585653093,2.4414693928585667,-0.002533006294743682,-0.0005335802511408763,1.471769170764777,2.8618572904955064,0.0706758028894865,0.0,-0.33696867142600634,0.7074321858340666,-0.03628526278922639,0.7049092284077506,0.036415132238413056,-0.002533006294743682,-0.0005335802511408763,1.471769170764777
22.81,-79.45504702877207,40.95676704218323,273.9643728790383,288.1788314083753,0,9.256101927167604,224.94346972623535,11.03150890678024,19.132145762634607,0.016167120752315564,0.0015766442472072081,2.491123295819568,2.67616461396565,0.0658064268488603,0.005954731891856588,-0.19265718030477627,2.5406117096286596,159171272440.47867,0.0,329180281237.40717,0.7085705171310451,-0.03424469577840926,0.7039652194769347,0.03446872249559738,0.0658064268488603,0.005954731891856588,-0.19265718030477627
22.9,-79.45327585418377,40.95692946534377,274.25124855035875,288.45110581625585,0,9.24717363829193,224.9561900051043,11.03143718786241,19.14170828501196,0.01967971764776801,0.0018047017837672155,3.187507459116058,2.5361078076758994,0.03902885439391611,0.0025339726284445306,7.737601814405459,3.552739699501008,318342544880.9147,0.0,658360562475.0072,0.7085540300861368,-0.032220093554710144,0.7041746692632997,0.03242047482597806,0.03902885439391611,0.0025339726284445306,7.737601814405459
23.1,-79.45151171734821,40.95708079721415,274.84559879614056,289.01579257751735,0,9.226466544080347,224.97866237724656,11.031288600300964,19.161519959871352,0.00882068417780589,0.0007566593518859469,2.971751228909014,3.2427919759242485,-0.05429516734980982,-0.005240212159406268,-1.0787811510352043,12.314511380343529,168117261876.6496,0.0,1331158036962.859,0.7075111486755566,-0.030200273235708296,0.7054065573163416,0.030290376217369838,-0.05429516734980982,-0.005240212159406268,-1.0787811510352043
23.3,-79.44975481716361,40.95722116445345,275.1491332843781,289.303997644633,0,9.20226010777742,224.99313866120556,11.031212716678905,19.171637776145936,0.00878450092301367,0.0007018361965194256,1.5176724411875906,3.3010873512559527,-0.00018091627396110417,-0.0002741157768326078,-7.270393938607144,15.536876232934116,168117261876.6496,0.0,1331158036962.859,0.7085933487803647,-0.028097818331403793,0.7044907873295444,0.028261444355209622,-0.00018091627396110417,-0.0002741157768326078,-7.270393938607144
23.4,-79.44800534236728,40.957350553963444,275.7537059853818,289.8785892092644,0,9.19446664599207,224.9973774103485,11.031061573503655,19.191790199512727,0.01749474796326959,0.001293895099934189,6.045727010037596,3.112302562166742,0.08710247040256107,0.00592058903414776,45.28054568850102,15.067598735930812,168117261876.6496,0.0,1331158036962.859,0.7076495517579491,-0.026057141794665402,0.7055991857197479,0.026132859963945713,0.08710247040256107,0.00592058903414776,45.28054568850102
23.6,-79.44626297153478,40.95746882288863,276.31023387178107,290.4075899400677,0,9.171923870258162,224.99985518102872,11.030922441532054,19.210341129059366,0.008711854162512954,0.0005913446259242421,2.7826394319961483,3.0800262967200625,-0.043914469003782555,-0.0035127523700496845,-16.315437890207008,15.98507165062478,168117261876.6496,0.0,1331158036962.859,0.707808759009934,-0.023919593753716446,0.7055911455419379,0.02399477101974704,-0.043914469003782555,-0.0035127523700496845,-16.315437890207008
23.7,-79.44452839307907,40.957576038616324,276.53459161852595,290.6206057529003,0,9.159901392705136,224.9980940924433,11.030866352095368,19.21781972061753,0.017345784557108262,0.001072157276951225,2.2435774674489064,3.311826861857198,0.08633930394595492,0.004808126510269932,-5.390619645472533,14.664917997011703,168117261876.6496,0.0,1331158036962.859,0.7095019504032851,-0.021737514698031528,0.7040273901130845,0.021906546949396605,0.08633930394595492,0.004808126510269932,-5.390619645472533
23.8,-79.44280112524962,40.957672448776705,276.81562460289035,290.88757210877117,0,9.148306213142776,224.99433309597197,11.030796093849277,19.22718748676301,0.017272678294517372,0.000964101603813092,2.8103298436439728,2.642379456245135,-0.0007310626259088883,-0.001080556731381315,5.667523761950583,5.655562554712222,168117261876.6496,0.0,1331158036962.859,0.7090041427542516,-0.019650366757569846,0.7046531547405266,0.01977170093403993,-0.0007310626259088883,-0.001080556731381315,5.667523761950583
24.0,-79.4410814661316,40.957757661242844,277.3509620044733,291.3966016650716,0,9.124435981147034,224.98081213686774,11.03066225949888,19.245032066815778,0.008598295590047687,0.000426062330696199,2.676687007914618,2.76265116536783,-0.04337191352234858,-0.0026901963655844743,-0.6682141786467756,3.0780570157944633,168117261876.6496,0.0,1331158036962.859,0.7080259611830669,-0.017474985294477028,0.7057524476944604,0.017531279275333884,-0.04337191352234858,-0.0026901963655844743,-0.6682141786467756
24.1,-79.43936921364512,40.957832054130805,277.6208081052008,291.6529966940524,0,9.11231926788499,224.9710527751641,11.0305947979737,19.254026936840027,0.017122524864845202,0.0007439288796007198,2.698461007275303,2.86071586377708,0.08524229274797394,0.0031786654890451627,0.21773999360684607,3.3000748971981393,168117261876.6496,0.0,1331158036962.859,0.7091815374112842,-0.015301285711336461,0.7046916313648859,0.015398777056735206,0.08524229274797394,0.0031786654890451627,0.21773999360684607
24.3,-79.4376638655442,40.95789528579963,278.29760828932797,292.2968532266777,0,9.089057586037809,224.94553845617358,11.030425597927668,19.2765869429776,0.008526740504635229,0.0003161583441269056,3.384000920635811,2.9586488244559077,-0.04297892180105002,-0.0021388526773690785,3.427699566802552,2.732755843892635,168117261876.6496,0.0,1331158036962.859,0.7078761298730781,-0.013085931144858759,0.7060935036045725,0.013118968305642135,-0.04297892180105002,-0.0021388526773690785,3.427699566802552
24.4,-79.4359667294161,40.95794766485142,278.57099984343995,292.5567094443869,0,9.07657999510314,224.9297846328522,11.03035725003914,19.285699994781332,0.016971361281008873,0.0005237905178745562,2.7339155411198717,3.0447881146840152,0.08444620776373823,0.0020763217374765498,-6.500853795159532,2.949374005189786,168117261876.6496,0.0,1331158036962.859,0.7092147440069118,-0.010873968946340924,0.7048237244823523,0.010941713274879103,0.08444620776373823,0.0020763217374765498,-6.500853795159532
24.6,-79.43427657268045,40.95798926013132,279.2310072564529,293.1847823341303,0,9.052371332556314,224.8922871593628,11.030192248185886,19.307700241881765,0.008450783678242027,0.00020797639951552742,3.3000370650648376,3.094119672733482,-0.04260288801383363,-0.0015790705917951213,2.8306076197247894,3.0734761773002193,10174857611.008694,0.0,-6222646558.0607395,0.7079582777189148,-0.008687933962580146,0.7061471014779442,0.00871021739268021,-0.04260288801383363,-0.0015790705917951213,2.8306076197247894
24.71,-79.43259449258844,40.9580196607276,279.57281681961564,293.5098913951741,0,9.03862899354893,224.8682612775204,11.030106795795096,19.319093893987187,0.015291637200091865,0.00027636905709404157,3.107359665115584,2.748334079599015,0.06218957747136249,0.00062175143253195,-1.7516127268114043,3.67797963673699,2259497488.076313,0.0,701217905369.9983,0.7088158452685008,-0.006373321757023939,0.7053357053310716,0.006404767849165686,0.06218957747136249,0.00062175143253195,-1.7516127268114043
24.9,-79.4309200662219,40.95803922597163,280.13239722650997,294.04250035611165,0,9.014231019021729,224.82107954624416,11.029966900693372,19.337746574217,0.008812770350181558,0.00010297496858488441,2.945160036285965,3.4135259385713086,-0.034099299210054654,-0.0009126004658376801,-0.8536822569980063,11.18739883377341,117741970681.46382,0.0,-735255074499.0385,0.7081519074474214,-0.004124783933808464,0.7060359382926485,0.004137145791188058,-0.034099299210054654,-0.0009126004658376801,-0.8536822569980063
25.1,-79.42925341049263,40.958047555437915,280.4634097730513,294.3574224958974,0,8.985495933958338,224.76364584287256,11.029884147556738,19.348780325768374,0.008333278646332924,4.16473314146509e-05,1.65506273270663,3.3144255130323854,-0.0023974585192431366,-0.00030663818585116315,-6.450486517896582,13.876595013596358,233654089186.41455,0.0,27419112917.736523,0.7088824818974057,-0.0017624877649854783,0.7053221836105963,0.00177138438317786,-0.0023974585192431366,-0.00030663818585116315,-6.450486517896582
25.2,-79.4275940821415,40.95804522894409,281.0694002574889,294.9344197135325,0,8.975355301623052,224.7319440989134,11.029732649935628,19.368980008582962,0.016593283511383915,-2.326493827808967e-05,6.059904844376107,3.3781032649015055,0.08260004865051167,-0.0006491226969274196,44.048421116695714,14.768585464009169,233654089186.41455,0.0,27419112917.736523,0.7080740456419015,0.0004950269567438623,0.7061378437948559,-0.0004963843009457166,0.08260004865051167,-0.0006491226969274196,44.048421116695714
25.4,-79.4259430877376,40.95803191655094,281.6303069804064,295.4685611426902,0,8.94821553070147,224.66257787119167,11.029592423254899,19.38767689934688,0.008254972019514669,-6.656196575249874e-05,2.8045336145874087,3.077460367860945,-0.04169155745934638,-0.00021648513737204612,-16.27685614894355,16.581541039444893,233654089186.41455,0.0,27419112917.736523,0.7081409535827379,0.0028465238827541845,0.7060595843275175,-0.0028549150545834827,-0.04169155745934638,-0.00021648513737204612,-16.27685614894355
25.5,-79.42429985367754,40.958007348562404,281.9728816447214,295.7946648542529,0,8.935096251230048,224.6249164703611,11.02950677958882,19.39909605482405,0.01643234060054487,-0.0002456798853245311,3.4257466431500427,3.966365501791509,0.08177368581030087,-0.0017911791957202982,6.212130285626253,24.606761944168632,233654089186.41455,0.0,27419112917.736523,0.7087810159463404,0.005272839755433181,0.7053889690933471,-0.005298195580775535,0.08177368581030087,-0.0017911791957202982,6.212130285626253
25.7,-79.4226649061846,40.95797179552554,282.2612687556854,296.0691456298215,0,8.904557128310831,224.54364546385537,11.029434682811079,19.408708958522848,0.008174737464727884,-0.00017776518433265727,1.4419355548201958,3.3264435275171076,-0.04128801567908508,0.0003395735049593703,-9.91905544164927,18.88210193924862,233654089186.41455,0.0,27419112917.736523,0.7090668808468447,0.007665068844211182,0.705057431562092,-0.007708657782387342,-0.04128801567908508,0.0003395735049593703,-9.91905544164927
25.8,-79.42103741130788,40.95792560823053,282.8712275208833,296.6502725648318,0,8.893782090320075,224.50003947021156,11.029282193119778,19.429040917362776,0.016274948767147402,-0.0004618729500549469,6.099587651978508,3.3984805297472547,0.08100211302419402,-0.002841077657222856,46.57652097158246,16.303483662044258,233654089186.41455,0.0,27419112917.736523,0.7079786390198718,0.010017200983883971,0.7060913686872908,-0.010043975374665056,0.08100211302419402,-0.002841077657222856,46.57652097158246
26.01,-79.4194179849216,40.95786845771068,283.47189205023255,297.22265143188787,0,8.864007371422817,224.40203165560322,11.029132026987442,19.449063068341083,0.007711554220401479,-0.0002721453326227577,2.860307282615578,3.347229238225188,-0.040778069270218514,0.0009034648449151829,-15.42514461601389,15.071268970406578,233654089186.41455,0.0,27419112917.736523,0.7079497938887578,0.012454453343969425,0.7060425081719349,-0.01248809749527597,-0.040778069270218514,0.0009034648449151829,-15.42514461601389
26.1,-79.41780702272422,40.95779993524235,283.7567132559826,297.493868450548,0,8.851380837055933,224.3573630475999,11.029060821686004,19.45855710853275,0.017899579970838284,-0.0007613607592481419,3.164680063889596,3.630299727359943,0.11320028611596468,-0.005435726962504278,3.3819197919335364,13.399733775804744,-1525508039.515357,0.0,809227225526.9142,0.7089452790754814,0.014985645968900568,0.7049431856695303,-0.015070722264601042,0.11320028611596468,-0.005435726962504278,3.3819197919335364
26.2,-79.4162039902377,40.957720542344994,284.07366215271367,297.7957586284566,0,8.837259906350814,224.30585847190287,11.028981584461821,19.469122071757123,0.016030324865142005,-0.0007939289735503677,3.169488967310553,3.0417901235936604,-0.018692551056963182,-0.0003256821430222647,0.04808903420956959,4.684067078568621,-1525508039.515357,0.0,809227225526.9142,0.7086778666579018,0.017449898777685404,0.7050982795427372,-0.017538487042098753,-0.018692551056963182,-0.0003256821430222647,0.04808903420956959
26.4,-79.41460930280672,40.957630480781056,284.6451221573353,298.3404988151659,0,8.80809645155065,224.19694427119282,11.028838719460666,19.488170738577843,0.007973437154902313,-0.0004503078196904669,2.8573000231082903,3.063554974142491,-0.040284438551198606,0.0017181057692995099,-1.560944721011318,1.7870870860615322,-1525508039.515357,0.0,809227225526.9142,0.7078125739875387,0.019915556882317435,0.7058370052159855,-0.019971298578989684,-0.040284438551198606,0.0017181057692995099,-1.560944721011318
26.5,-79.41302241559792,40.95752900255597,284.9608242890851,298.6412876524114,0,8.793669325470615,224.13953948679304,11.028759793927728,19.498694142969505,0.015868872088020455,-0.0010147822508343861,3.157021317497834,2.721909529267662,0.0789543493311803,-0.005644744311439112,2.997212943895395,2.6229725930848082,-1525508039.515357,0.0,809227225526.9142,0.7085239557617646,0.022517521456511626,0.7049642494973352,-0.02263122333890541,0.0789543493311803,-0.005644744311439112,2.997212943895395
26.7,-79.41144401359902,40.95741686991811,285.55465056952715,299.207529816457,0,8.764157845355884,224.018847306362,11.028611337357617,19.518488352317572,0.007892009994492383,-0.0005606631892973743,2.969131402210234,3.259651705162767,-0.0398843104676405,0.0022705953076850673,-0.939449576438004,11.416141862461686,-1525508039.515357,0.0,809227225526.9142,0.7076031298564528,0.025036289432985824,0.7057200787500976,-0.02510309299141555,-0.0398843104676405,0.0022705953076850673,-0.939449576438004
26.9,-79.40987399161816,40.95729331535876,285.84594702254924,299.4851138075197,0,8.731257634545745,223.89032966901024,11.028538513244362,19.528198234084975,0.007850109904339347,-0.0006177727967582335,1.4564822651104288,3.2702047915280135,-0.00020950045076517727,-0.00028554803730429724,-7.563245685499053,17.00021824182419,-1525508039.515357,0.0,809227225526.9142,0.7084690936964788,0.02768376376103341,0.7046491537732927,-0.027833838892534733,-0.00020950045076517727,-0.00028554803730429724,-7.563245685499053
27.0,-79.40831242428312,40.957159171612005,286.4317689743622,300.04387553700167,0,8.719077450211282,223.82314338951878,11.02839205775641,19.54772563247874,0.015615673350310777,-0.0013414374675590843,5.858219518129802,3.2226033207988634,0.07765563445971319,-0.007236646708008405,44.01737253019311,16.412508763004716,-1525508039.515357,0.0,809227225526.9142,0.7074022209565151,0.030247203279720167,0.7055121562488298,-0.030328235436173922,0.07765563445971319,-0.007236646708008405,44.01737253019311
27.1,-79.4067590360405,40.95701357165472,286.7227724534966,300.3212589623587,0,8.703863605886283,223.75400942197925,11.028319306886626,19.557425748449887,0.015533882426268299,-0.0014559995728546731,2.910034791343564,3.2108223996097776,-0.0008179092404247678,-0.0011456210529558716,-29.481847267861962,16.247900170212947,-1525508039.515357,0.0,809227225526.9142,0.7082258375318367,0.03294153526613055,0.704438908023765,-0.033118622690631934,-0.0008179092404247678,-0.0011456210529558716,-29.481847267861962
27.3,-79.405214291155,40.956857358706486,287.3065811908001,300.8782541442161,0,8.673204767092841,223.60991079962054,11.0281733547023,19.57688603969334,0.00772372442746419,-0.0007810647411687938,2.9190436865175786,3.4957803972819748,-0.03905078999402068,0.0033746741584294087,0.045044475870073146,14.76518935339964,-1525508039.515357,0.0,809227225526.9142,0.7071476408045273,0.035569625575802614,0.7052695017767101,-0.035664347808694395,-0.03905078999402068,0.0033746741584294087,0.045044475870073146
27.4,-79.40367765370867,40.956689686229524,287.5976008194355,301.15573122901634,0,8.65774556599126,223.5349525491609,11.02810059979514,19.586586693981186,0.015366374463355087,-0.0016767247696236967,2.9101962863541697,2.9034089431974612,0.0764265003589106,-0.00895660028454922,-0.08847400163409092,5.976791019015517,-1525508039.515357,0.0,809227225526.9142,0.7079355543848458,0.0383054309851103,0.7041853225336171,-0.03850943161215908,0.0764265003589106,-0.00895660028454922,-0.08847400163409092
27.6,-79.40215001760008,40.95651131792861,288.1738574748772,301.7056667991238,0,8.626536653598883,223.37923482686017,11.027956535631281,19.605795249162572,0.007638180542954734,-0.0008918415045755396,2.88128327720837,2.8925574077686833,-0.03864096960200122,0.003924416325240729,-0.14456504572899725,0.16301869035416866,6443505023.08125,0.0,467485413291.2328,0.7068543470252576,0.04101718871259805,0.7049702886891865,-0.04112680861794167,-0.03864096960200122,0.003924416325240729,-0.14456504572899725
27.8,-79.40063098654375,40.956321617751,288.75313209490827,302.25858428858146,0,8.595060011551368,223.2158053548394,11.027811716976272,19.625104403163608,0.007595155281663351,-0.0009485008880361112,2.8963731001553685,2.889063087959423,-0.00021512630645691567,-0.000283296917302859,0.07544911473499365,0.24260592793483732,9694579126.20625,0.0,878512654510.0149,0.7066748165982651,0.04383889066159197,0.7048097774755949,-0.043954895360719684,-0.00021512630645691567,-0.000283296917302859,0.07544911473499365
27.9,-79.39911977406919,40.956120719886364,289.0387099196172,302.5309899453534,0,8.579174033712953,223.13120773855115,11.027740322520096,19.63462366398724,0.015112124745542455,-0.0020089786463728817,2.8557782470892943,2.877196083242303,0.07516969463879265,-0.01060477758336793,-0.4059485306607511,0.270376345679165,9694579126.20625,0.0,878512654510.0149,0.7074441823158891,0.04656797986304767,0.7036776949304887,-0.04681723845115039,0.07516969463879265,-0.01060477758336793,-0.4059485306607511
28.0,-79.3976169435203,40.955908798766636,289.3288641913941,302.80779332131635,0,8.56326494222575,223.0446931867965,11.02766778395215,19.64429547304647,0.015028305488868696,-0.0021192111972822814,2.9015427177688067,2.582607492924063,-0.0008381925667375804,-0.0011023255090939817,0.45764470679511743,1.6829998316122707,9694579126.20625,0.0,878512654510.0149,0.7072151794523039,0.04935953836090337,0.7035256503053867,-0.04961839666320106,-0.0008381925667375804,-0.0011023255090939817,0.45764470679511743
28.2,-79.39612356805462,40.955685759065965,289.89904265492737,303.3522170116325,0,8.531146354983381,222.8659287422218,11.027525239336267,19.663301421830912,0.007466877328425907,-0.0011151985033564,2.850892317666488,3.108527083008264,-0.037807140802214076,0.005020063469629426,-0.25325200051159324,9.90318408448756,9694579126.20625,0.0,878512654510.0149,0.7060979700241993,0.052299336482847535,0.7042305661975808,-0.05243801830917751,-0.037807140802214076,0.005020063469629426,-0.25325200051159324
28.4,-79.3946379106426,40.955451685700616,290.1807087571993,303.62098294843247,0,8.495889790185657,222.67954380099016,11.0274548228107,19.672690291906644,0.007428287060093934,-0.0011703668267415465,1.4083305113595708,3.046488305410117,-0.00019295134165986884,-0.0002758416169257337,-7.212809031534613,12.800943180759575,9694579126.20625,0.0,878512654510.0149,0.7068289274236438,0.0550463143595862,0.7030648203811299,-0.055341024340143936,-0.00019295134165986884,-0.0002758416169257337,-7.212809031534613
28.5,-79.39316175406671,40.955206243828826,290.73330484748254,304.14874255752096,0,8.482289073159915,222.58350394593364,11.027316673788128,19.69111016158275,0.014761565758902652,-0.0024544187179031604,5.525960902832516,2.9352306630534586,0.07333278698808614,-0.012840518911615957,41.17630391472886,13.110420341601246,9694579126.20625,0.0,878512654510.0149,0.7056621782385677,0.05810801419983643,0.7037538424295477,-0.05826558293708946,0.07333278698808614,-0.012840518911615957,41.17630391472886
28.7,-79.39169407092103,40.954949498850716,291.2424276773347,304.6350286084837,0,8.448956378632584,222.3857508088605,11.027189393080667,19.708080922577825,0.007338415728384033,-0.0012837248905484034,2.5456141492608797,2.8081712031693833,-0.037115750152593226,0.005853469136773806,-14.901733767858234,13.318581960949382,9694579126.20625,0.0,878512654510.0149,0.7054876150513371,0.06106228768943837,0.7034259955742505,-0.06124125065413978,-0.037115750152593226,0.005853469136773806,-14.901733767858234
28.8,-79.39023411361029,40.95468213640815,291.47695240059505,304.8588346140666,0,8.432008223328172,222.28404631583962,11.027130761899851,19.715898413353166,0.014599573107431998,-0.0026736244256397486,2.3452472326033225,2.9331629271989668,0.07261157379047863,-0.013898995350913254,-2.003669166575544,12.058431089200667,9694579126.20625,0.0,878512654510.0149,0.7064339285458416,0.06374660370127644,0.7019772675134053,-0.06415131339461451,0.07261157379047863,-0.013898995350913254,-2.003669166575544
28.9,-79.3887827443492,40.95440373238466,291.69850797337904,305.07025676817483,0,8.414878653080097,222.1804625388317,11.027075373006655,19.723283599112634,0.014513692610904936,-0.0027840402349000354,2.215555727839889,2.021497592582747,-0.0008588049652706434,-0.0011041580926028918,-1.2969150476343627,4.888826004813433,9694579126.20625,0.0,878512654510.0149,0.7062782081184714,0.06668153176361026,0.7015828710034561,-0.06712779732098903,-0.0008588049652706434,-0.0011041580926028918,-1.2969150476343627
29.1,-79.38734057516179,40.954113342905245,292.1051671540734,305.4587008441721,0,8.380107565583263,221.96767563099903,11.02697370821148,19.736838905135777,0.0072108459370666764,-0.0014519473970864077,2.0332959034717812,2.23489603717213,-0.036514233369190775,0.006660464189068044,-0.9112991218405256,7.198411848663367,281447980674.79376,0.0,2858594227372.125,0.7048914976329735,0.07000825980068985,0.7023461217256768,-0.0702619770667162,-0.036514233369190775,0.006660464189068044,-0.9112991218405256
29.3,-79.38590622788067,40.953812654336296,292.2986925033311,305.64335837329304,0,8.34302152353511,221.74742791358565,11.026925326874167,19.74328975011104,0.0071717364055956774,-0.0015034428447435798,0.9676267462884914,2.1311913669287854,-0.0001955476573549957,-0.00025747723828586146,-5.328345785916468,8.583251762374854,281447980674.79376,0.0,2858594227372.125,0.7059938795030327,0.07265241973847938,0.7006677830807548,-0.07320468402432617,-0.0001955476573549957,-0.00025747723828586146,-5.328345785916468
29.4,-79.38448101414633,40.953500013285414,292.659951284066,305.988450884695,0,8.3270594822842,221.63451843546756,11.026835012178983,19.755331709468866,0.014252137343362696,-0.00312641050882696,3.612587807348936,2.1007466033629334,0.07080400937767169,-0.01622967664083415,26.44961061060501,8.797236237349384,281447980674.79376,0.0,2858594227372.125,0.7044073017169566,0.07604540365925799,0.7015679894464261,-0.07635316662874232,0.07080400937767169,-0.01622967664083415,26.44961061060501
29.6,-79.38306386540648,40.9531760466013,293.0253025614475,306.33749590637933,0,8.291445561402941,221.40315333108774,11.026743674359638,19.767510085381584,0.007085743699235435,-0.0016198334205696822,1.8267563869076493,1.8598294072204076,-0.03583196822063579,0.007532885441286283,-8.929157102206307,9.849485234352096,281447980674.79376,0.0,2858594227372.125,0.7040435394351239,0.07913350967350599,0.7012477723156949,-0.07944900281747652,-0.03583196822063579,0.007532885441286283,-8.929157102206307
29.7,-79.38165523291528,40.95284228137357,293.23163560289436,306.5344590691055,0,8.273820013931235,221.28470798768143,11.026692091099276,19.77438785342981,0.01408632491205738,-0.0033376522772955042,2.06333041446844,2.3851892143347753,0.07000581212822093,-0.017178188567258588,2.365740275607959,14.315300479300953,281447980674.79376,0.0,2858594227372.125,0.7047873750667493,0.08178119724897395,0.6998599276475796,-0.08235698753700425,0.07000581212822093,-0.017178188567258588,2.365740275607959
29.9,-79.38025531773272,40.95249770493263,293.39737397806874,306.6926002690767,0,8.235999163953377,221.04231803929207,11.026650656505483,19.779912465935624,0.006999575912800563,-0.0017228822046888642,0.8286918758719283,2.054090938027211,-0.03543374499628421,0.008073850363033229,-6.173192692982581,10.662686293446473,281447980674.79376,0.0,2858594227372.125,0.7050110489865502,0.0847498031087348,0.6989050825208561,-0.08549021760663719,-0.03543374499628421,0.008073850363033229,-6.173192692982581
30.0,-79.37886350072391,40.95214077484949,293.7568164588709,307.03607120460686,0,8.219808180708444,220.91838420715567,11.026560795885281,19.791893881962363,0.013918170088089512,-0.0035693008314296496,3.5944248080215346,2.0217681967305188,0.06918594175288852,-0.018464186267407593,27.65732932149567,9.461045372543664,281447980674.79376,0.0,2858594227372.125,0.7029445895228842,0.08834571922318077,0.7001402158812671,-0.08869958320745047,0.06918594175288852,-0.018464186267407593,27.65732932149567
30.2,-79.37747999255838,40.95177301893561,294.1482390194317,307.4101796648838,0,8.184068900255577,220.6650663675043,11.02646294024514,19.804941300647723,0.006917540827657855,-0.0018387795693897212,1.9571128028039266,1.9359581876861245,-0.03500314630215841,0.008652606310199673,-8.186560026088069,9.049331674777656,281447980674.79376,0.0,2858594227372.125,0.7024299962559869,0.09142959386996105,0.6998656939236391,-0.09176459117421802,-0.03500314630215841,0.008652606310199673,-8.186560026088069
30.3,-79.37610582370947,40.95139585524272,294.31474863610697,307.5691048576959,0,8.165869863734368,220.53569361851822,11.026421312840974,19.810491621203564,0.0137416884891193,-0.003771636928888657,1.6650961667528226,2.043373875036169,0.06824147661461348,-0.019328573594989084,-2.9201663605109993,8.083252277859469,281447980674.79376,0.0,2858594227372.125,0.703766102711118,0.09401870252442154,0.6977690466037312,-0.09482675704751488,0.06824147661461348,-0.019328573594989084,-2.9201663605109993
30.4,-79.37474047445353,40.951007882062655,294.4781755874701,307.72508894997253,0,8.147617728507905,220.40451928982168,11.026380456103132,19.815939186249004,0.013653492559342631,-0.0038797318006801025,1.6342695136313872,1.444258430795156,-0.0008819592977667171,-0.0010809487179144774,-0.30826653121436054,4.085977285404292,281447980674.79376,0.0,2858594227372.125,0.7033771746897913,0.09714751094532283,0.6972947053278788,-0.09799492417590679,-0.0008819592977667171,-0.0010809487179144774,-0.30826653121436054
30.6,-79.37338301486945,40.95060776792715,294.7513322543057,307.986093961198,0,8.110517626063595,220.13678929290208,11.026312166936423,19.825044408476856,0.006787297920425221,-0.0020005706775094436,1.3657833341778576,1.165197923159237,-0.03433097319458656,0.00939580561585316,-1.3424308972676289,2.4845171070784082,281447980674.79376,0.0,2858594227372.125,0.7016678133821459,0.10073236866337425,0.6980419557099566,-0.1012556054527509,-0.03433097319458656,0.00939580561585316,-1.3424308972676289
30.7,-79.37203542483775,40.95019809160768,294.81120331960204,308.0429910482875,0,8.091175055477708,220.00024552374597,11.026297199170099,19.827040110653403,0.013475900316990707,-0.004096763194709839,0.5987106529636449,0.8432578229101994,0.0668860239656563,-0.020961925172004403,-7.6707268121422905,2.407080653324816,281447980674.79376,0.0,2858594227372.125,0.7075990309999272,0.10273557991501127,0.6911483138296058,-0.1051808929320484,0.0668860239656563,-0.020961925172004403,-7.6707268121422905
30.91,-79.37069583404015,40.94977738211526,294.92917786854395,308.1554990309921,0,8.050433925457158,219.70772426727808,11.026267705532863,19.83097259561813,0.00637900379809066,-0.0020033785353524183,0.561783566390007,0.5639008182072899,-0.03379474532809532,0.00996849837789244,-0.1758432693982748,2.709936374713483,281447980674.79376,0.0,2858594227372.125,0.7030844144061189,0.1065333792724605,0.6947662887246785,-0.10780885572035137,-0.03379474532809532,0.00996849837789244,-0.1758432693982748
31.11,-79.36936630195878,40.949346508700195,294.9401807885052,308.1656300274582,0,8.010577571516478,219.42189622015724,11.026264954802873,19.83133935961684,0.006647660406855517,-0.002154367075313254,0.055014599806213677,0.3409217692635419,0.00134328304382429,-0.0007549426998041802,-2.5338448329189758,2.471084511495825,4.861500821229332,0.0,1.1040167142386663,0.7411429781337515,0.10316367710062703,0.6529569110793182,-0.11709660099194437,0.00134328304382429,-0.0007549426998041802,-2.5338448329189758
31.21,-79.36804419787556,40.94890489085197,294.9638944690409,308.187926908079,0,7.990821341109457,219.27635088452203,11.02625902638274,19.832129815634694,0.013221040832149623,-0.0044161784822448966,0.23713680535706436,0.2807350681211675,0.06573380425294013,-0.022618114069316107,1.8212220555084808,0.9850590911982465,4.412749095191439,0.0,1.130421202966081,0.7181264082582232,0.11010371021144644,0.6771538927424295,-0.11676574970252099,0.06573380425294013,-0.022618114069316107,1.8212220555084808
31.3,-79.36673271087157,40.94845304829896,294.9864334018795,308.20910103273906,0,7.973049121891111,219.1438674006834,11.02625339164953,19.832881113395985,0.01457207782209482,-0.0050204728112469765,0.25043258709539906,0.2321975069182515,0.015011522110502211,-0.006714381433356454,0.14773090820371917,0.9933246969975998,4.412749095191439,0.0,1.130421202966081,0.7184995281748723,0.11312514344742651,0.6756394806403478,-0.12030138042651972,0.015011522110502211,-0.006714381433356454,0.14773090820371917
31.5,-79.36542793982642,40.94799067100826,295.04600588091466,308.26572089407784,0,7.933645564074849,218.8444214991993,11.026238498529771,19.834866862697154,0.006523855225779608,-0.002311886453476583,0.2978623951759129,0.39805167545363757,-0.04024111298157621,0.013542931788852014,0.23714904040257,1.0524603410255735,4.412749095191439,0.0,1.130421202966081,0.7049277500631245,0.11842733836760672,0.6887377452463773,-0.12121118344048015,-0.04024111298157621,0.013542931788852014,0.23714904040257
31.6,-79.36413443341756,40.94751763918544,295.077889702197,308.2958417271938,0,7.913966283155863,218.6921055835275,11.02623052757445,19.8359296567399,0.012935064088565967,-0.004730318228212059,0.3188382128234889,0.37264728533091007,0.06411208862786268,-0.024184317747354418,0.20975817647575704,1.6829634802601123,4.412749095191439,0.0,1.130421202966081,0.7111361638283112,0.1206281078374154,0.681080367374891,-0.12595137661654165,0.06411208862786268,-0.024184317747354418,0.20975817647575704
31.8,-79.36284832011965,40.94703411327435,295.2548298639261,308.4648048872544,0,7.87575248962879,218.38232166987942,11.026186292534017,19.841827662130868,0.006430566489541456,-0.002417629555466769,0.8847008086453942,0.35658408688733223,-0.03252248799512267,0.011563443363726493,2.829312979109537,2.214113652309803,4.412749095191439,0.0,1.130421202966081,0.6984030449588381,0.12596584570617425,0.6930007541571178,-0.12694781307851438,-0.03252248799512267,0.011563443363726493,2.829312979109537
32.0,-79.36157113820407,40.946540983956844,295.23276746644075,308.4432932938704,0,7.835579387809247,218.06571433346755,11.02619180813339,19.84109224888136,0.006385909577915095,-0.002465646587523915,-0.11031198742671261,0.30899604883179566,-0.0002232845581318096,-0.00024008516028573097,-4.975063980360552,2.6229107875476947,4.412749095191439,0.0,1.130421202966081,0.7163435784587052,-0.1254634411137007,-0.6732689817008707,-0.13349037727251528,-0.0002232845581318096,-0.00024008516028573097,-4.975063980360552
32.1,-79.36030567573809,40.9460360421526,295.24977201221134,308.45917697123974,0,7.815789707880017,217.90486942364905,11.026187556996947,19.84165906707371,0.012654624659802313,-0.0050494180424464465,0.17004545770589388,0.2562095480231593,0.0626871508188713,-0.025837714549224948,2.8035744513260252,2.6868674409676325,4.412749095191439,0.0,1.130421202966081,0.7216025604911731,0.12798597331946115,0.6660970203232587,-0.13865098211887814,0.0626871508188713,-0.025837714549224948,2.8035744513260252
32.2,-79.3590490605844,40.94552048901881,295.24392750582984,308.45319101118827,0,7.795785208116568,217.74233985920674,11.026189018123542,19.841464250194328,0.012566151536930014,-0.005155531337876978,-0.058445063814928366,0.1362315217910384,-0.0008847312287229825,-0.0010611329543052978,-2.28490521520819,2.47840958528975,4.412749095191439,0.0,1.130421202966081,0.7682704192490251,-0.12030768115286455,-0.6101986998240178,-0.15147333592294757,-0.0008847312287229825,-0.0010611329543052978,-2.28490521520819
32.41,-79.35780070040043,40.94499513595002,295.25544075400126,308.4638203315374,0,7.754066994823455,217.39557644805382,11.0261861398115,19.841848025133373,0.005944572304594424,-0.0025016812799433723,0.05482499129243642,0.24942486542684286,-0.03153132967778946,0.012637381228255641,0.5393812147969913,2.2667163833573385,4.412749095191439,0.0,1.130421202966081,0.7325001010374567,0.131477742875607,0.6513810176193019,-0.14785119206044406,-0.03153132967778946,0.012637381228255641,0.5393812147969913
32.6,-79.35656342263773,40.944458334577796,295.20133846553375,308.4116454649625,0,7.715751672871702,217.07552064172225,11.026199665383617,19.84004461551779,0.00651198822472555,-0.002825270380144969,-0.2847488866710687,0.2181073222615503,0.002986399579637428,-0.0017031005273767808,-1.7872309366499812,3.0503933218894757,4.412749095191439,0.0,1.130421202966081,0.7009214595932551,-0.14191607347175483,-0.6836660567665046,-0.14549796698703027,0.002986399579637428,-0.0017031005273767808,-1.7872309366499812
32.7,-79.35533436454146,40.94391161677054,295.1337027513293,308.34651853118123,0,7.6952274989805325,216.90467764296184,11.026216574312167,19.837790091710975,0.012290580962712563,-0.005467178072535639,-0.6763571420446982,0.24197297599623496,0.05778592737986931,-0.026419076923906323,-3.91608255373624,2.768668480534141,4.412749095191439,0.0,1.130421202966081,0.698522470642261,-0.14543186637304387,-0.684768066424379,-0.14835304330043897,0.05778592737986931,-0.026419076923906323,-3.91608255373624
32.8,-79.35411665314963,40.94335346463315,295.13329482437376,308.34574058453006,0,7.675401213701284,216.732194442381,11.026216676293906,19.837776494145793,0.012177113918313135,-0.005581521373941063,-0.004079269555177466,0.2640071353646167,-0.0011346704439943406,-0.0011434330140543082,6.72277872489559,3.0050251200938503,4.412749095191439,0.0,1.130421202966081,0.9663470125525077,-0.03140332223443717,-0.14387841016460698,-0.21091772275460624,-0.0011346704439943406,-0.0011434330140543082,6.72277872489559
33.0,-79.3529080252927,40.94278670050683,295.0974534997271,308.31104887255884,0,7.635483146710776,216.38233817188154,11.026225636625067,19.836581783324235,0.00604313928462821,-0.002833820631593613,-0.17920662323319647,0.23668966678598474,-0.03066987316842419,0.013738503711737056,-0.8756367683900826,2.6851426063097406,4.412749095191439,0.0,1.130421202966081,0.702907050438891,-0.15090000153432087,-0.6772145153327171,-0.15662492842109535,-0.03066987316842419,0.013738503711737056,-0.8756367683900826
33.2,-79.35170992759275,40.94220800696877,295.1305014945133,308.3422954726153,0,7.596380165263412,216.02601402597276,11.026217374626372,19.837683383150445,0.0059904884997762625,-0.0028934676902991484,0.1652399739307929,0.1588283072111937,-0.00026325392425973507,-0.0002982352935276736,1.7222329858199226,2.041432769766984,4.412749095191439,0.0,1.130421202966081,0.7030140314448963,0.1545420033170331,0.6752797310318701,-0.1608891719783463,-0.00026325392425973507,-0.0002982352935276736,1.7222329858199226
33.3,-79.35052132646315,40.94162153683189,295.14526712790916,308.35604472241425,0,7.576863344193286,215.8454462506239,11.026213683218023,19.838175570930304,0.011886011295985774,-0.005864701368807679,0.14765633395882943,0.22069100018594362,0.05895522796209847,-0.029712336785086994,-0.17583639971964465,0.7630294378100496,4.412749095191439,0.0,1.130421202966081,0.7187414754700838,0.1532919339707537,0.6571146217964303,-0.16766826843480945,0.05895522796209847,-0.029712336785086994,-0.17583639971964465
33.5,-79.34934251810778,40.941022133144536,295.20268872113536,308.41062381109725,0,7.538222943864554,215.4795394208042,11.026199327819716,19.840089624037844,0.005894041776883712,-0.0029970184367655436,0.28710796613097095,0.3409986467646762,-0.029959847595509886,0.014338414660210472,0.6972581608606977,3.040728450785738,4.412749095191439,0.0,1.130421202966081,0.6955088406410449,0.16287797755760755,0.679675326885405,-0.1666723343572976,-0.029959847595509886,0.014338414660210472,0.6972581608606977
33.61,-79.34817338852052,40.94041523919021,295.23822909744433,308.4442609948304,0,7.517079859648817,215.27559793865814,11.026190442725639,19.841274303248145,0.010628450793216346,-0.005517217766608142,0.32309433008157035,0.45944085779268,0.04304008196666053,-0.022910902998569196,0.32714876318726893,4.234591977795196,4.412749095191439,0.0,1.130421202966081,0.6995454947547408,0.16453790322978826,0.6740979592245141,-0.17074929147271645,0.04304008196666053,-0.022910902998569196,0.32714876318726893
33.7,-79.34701403348477,40.93979455848729,295.1679631821102,308.37662347135966,0,7.498826588273335,215.10732521075317,11.026208009204472,19.83893210607034,0.01288172261947897,-0.006896452254620591,-0.7807323926012898,0.540249813989824,0.025036353625139316,-0.015324827644582187,-12.264741363142427,5.506840321180656,-175702837868307.2,0.0,-742059218503.9645,0.6922456132581787,-0.1704239853152937,-0.6794112586869016,-0.17364336360351043,0.025036353625139316,-0.015324827644582187,-12.264741363142427
33.9,-79.34586461857269,40.93916716478869,295.31947450241734,308.52126938121995,0,7.4614737364549,214.72886979090566,11.026170131374395,19.84398248341391,0.005747074560389487,-0.0031369684930027788,0.7575566015356278,0.7255867921120005,-0.035673240295448175,0.018797418808089463,7.691444970684752,6.6903802328488124,-87902721379555.6,0.0,-1284014809312.4648,0.6881102488600308,0.17406122161960694,0.682188690412041,-0.1755721140044198,-0.035673240295448175,0.018797418808089463,7.691444970684752
34.1,-79.34472498914472,40.9385254720816,295.20902328764936,308.4151677234425,0,7.421697941132948,214.3442404412284,11.026197744178088,19.840300776254978,0.005698147139838658,-0.0032084635354578494,-0.5522560738398773,0.7849830613371892,-0.0002446371027541427,-0.00035747521227534834,-6.549063376877432,8.458302134661404,-87902721379555.6,0.0,-1284014809312.4648,0.6880262100129882,-0.1782653769013062,-0.6799274161902426,-0.18038874257075846,-0.0002446371027541427,-0.00035747521227534834,-6.549063376877432
34.2,-79.34359638034917,40.937876764587145,295.08764336907757,308.2986106191142,0,7.401227093044527,214.14963186814148,11.02622808915773,19.836254778969252,0.01128608795553971,-0.006487074944558821,-1.2137991857178858,1.138044700880886,0.05587940815700973,-0.03278611409100925,-6.615431118779991,12.338175718591078,-87902721379555.6,0.0,-1284014809312.4648,0.6868421371626297,-0.18137443786580798,-0.6795154778784082,-0.18333004999293567,0.05587940815700973,-0.03278611409100925,-6.615431118779991
34.4,-79.34247756712143,40.937218106760106,295.2116960799496,308.41697436297204,0,7.364120335968361,213.75587017127594,11.026197075980011,19.840389869331652,0.005594066138670092,-0.003293289135193404,0.6202635543601919,1.06377030427835,-0.0284601090843487,0.015968929046827424,9.170313700390585,16.131098175646507,-87902721379555.6,0.0,-1284014809312.4648,0.6857912255060322,0.18493127057853892,0.678651508934642,-0.1868768300295016,-0.0284601090843487,0.015968929046827424,9.170313700390585
34.5,-79.34136832418358,40.93654482328855,294.95708165547705,308.17289538234644,0,7.342487791137911,213.5567345479524,11.02626072958613,19.831902721849236,0.011092429378578414,-0.006732834715563645,-2.5461442447254607,1.197934133664024,0.054983632399082445,-0.03439545580370192,-31.66407799085608,16.515113244101002,-87902721379555.6,0.0,-1284014809312.4648,0.6826975224853143,-0.19000616924240252,-0.6792271701649141,-0.19097696131210232,0.054983632399082445,-0.03439545580370192,-31.66407799085608
34.61,-79.34026836604373,40.93586129909357,294.9995453328247,308.2131643380402,0,7.321987578074132,213.33596313235807,11.026250113666794,19.833318177760823,0.009999619453150373,-0.006213856318026988,0.3860334304332292,0.9999136891554843,-0.009934635685709521,0.004717985432151452,26.656160683260957,18.0849697908846,-87902721379555.6,0.0,-1284014809312.4648,0.6902428795718832,0.19107721329967298,0.6695131498002022,-0.19699342121644076,-0.009934635685709521,0.004717985432151452,26.656160683260957
34.8,-79.33918213699559,40.9351702293289,294.76715725109733,307.9903748135072,0,7.283701196069506,212.95041498136132,11.026308210687226,19.82557190836991,0.005716994990217241,-0.003637209287738255,-1.2230951669862193,0.9700038907713147,-0.022540128752279908,0.013561300159414546,-8.469097881155093,16.945025589656844,-1017966578638.1224,0.0,337118360838.82947,0.6807962690665333,-0.19711292605239317,-0.677035110642597,-0.19820795484873585,-0.022540128752279908,0.013561300159414546,-8.469097881155093
34.9,-79.33810250111786,40.93446540938061,294.78949675132793,308.011383493745,0,7.265092411759639,212.74536750193124,11.026302625812168,19.8263165583776,0.010796358777298412,-0.007048199482895157,0.2233950023060029,0.4864830943440676,0.05079363787081099,-0.03410990195156854,14.464901692922018,10.95448756514764,-2035933157438.8313,0.0,674236721678.281,0.6969983049656504,0.19574855457624166,0.6579306243362308,-0.20737203238831406,0.05079363787081099,-0.03410990195156854,14.464901692922018
35.1,-79.33703573227375,40.93375406486676,294.69535577646496,307.92091545857085,0,7.226693358820713,212.33091568811068,11.026326161055884,19.823178525882167,0.005333844220558528,-0.0035567225692289587,-0.4707048743148267,0.4311942006487876,-0.027312572783699033,0.017457384568330743,-3.470499383104099,6.098291014871487,-2035933157438.8313,0.0,674236721678.281,0.6813479222443146,-0.2035443160343637,-0.6721312413578312,-0.20633544207004148,-0.027312572783699033,0.017457384568330743,-3.470499383104099
35.3,-79.3359796441104,40.93303142163707,294.6696729713604,307.8959676522314,0,7.189266982055608,211.91071624109645,11.02633258175716,19.822322432378677,0.005280440816761824,-0.003613216148465958,-0.12841402552283218,0.21750950732727956,-0.0002670170189835258,-0.0002824678961850031,1.7114542439600093,4.930818046666614,-2035933157438.8313,0.0,674236721678.281,0.692119940399483,-0.20372710316532924,-0.6584932144346987,-0.21413066590457633,-0.0002670170189835258,-0.0002824678961850031,1.7114542439600093
35.4,-79.33493032005838,40.93229472577253,294.6805746827561,307.9060327693588,0,7.170903910944101,211.69848445965792,11.02632985632931,19.822685822758537,0.01049324052019059,-0.007366958645391614,0.10901711395717784,0.18777235405327336,0.052127997034286916,-0.03753742496925603,2.3743113948000665,2.1174216831287778,-2035933157438.8313,0.0,674236721678.281,0.7125362878683527,0.20022288055793436,0.6336483334389991,-0.225150230072835,0.052127997034286916,-0.03753742496925603,2.3743113948000665
35.5,-79.33389129333119,40.931547693585095,294.66515865927164,307.8909119022971,0,7.152355252020797,211.48484386190574,11.026333710335182,19.822171955309056,0.01039026727184463,-0.007470321874336499,-0.15416023484476463,0.10063860188552778,-0.0010297324834595792,-0.001033632289448837,-2.631773488019387,1.4636039392512499,-2035933157438.8313,0.0,674236721678.281,0.7003256727995394,-0.20767284269740227,-0.6445996622883305,-0.2256262790581423,-0.0010297324834595792,-0.001033632289448837,-2.631773488019387
35.7,-79.33286600692475,40.93079246161729,294.6501965513905,307.876227936133,0,7.115656751971413,211.05337426006213,11.026337450862153,19.821673218379683,0.00512643203222744,-0.003776159839041728,-0.07481053940580189,0.1710933645481724,-0.02631917619808558,0.018470810176473593,0.39674847719480805,1.9326583256636738,-2035933157438.8313,0.0,674236721678.281,0.6996835263036429,-0.2111452255622812,-0.6426634399441069,-0.22987901100526845,-0.02631917619808558,0.018470810176473593,0.39674847719480805
35.9,-79.33185053361686,40.930026046641856,294.6432969114474,307.86926114198906,0,7.079371203609039,210.61638414013626,11.026339175772138,19.82144323038158,0.005077366539438907,-0.0038320748771526175,-0.034498199715358904,0.2043938810445451,-0.00024532746394266645,-0.00027957519055445384,0.20156169845221922,1.9127674223886437,-2035933157438.8313,0.0,674236721678.281,0.7287409814156035,-0.20323742673898768,-0.606652596432975,-0.24413880809709038,-0.00024532746394266645,-0.00027957519055445384,0.20156169845221922
