time,position_x,position_y,position_z,ground_station_distance,comm_range_status,wind_speed,wind_angle,battery_voltage,battery_current,velocity_x,velocity_y,velocity_z,velocity_total,acceleration_x,acceleration_y,acceleration_z,acceleration_total,angular_x,angular_y,angular_z,orientation_w,orientation_x,orientation_y,orientation_z,linear_acceleration_x,linear_acceleration_y,linear_acceleration_z
0.0,-92.36869111923781,17.996107473744356,269.3324017,285.2994524859413,0,7.693324017,180.0,11.032666899575,18.977746723333333,-0.0044680254919882145,0.0045183588215458315,0.012359152323995204,0.027228702029553055,-0.04364461813608503,0.04619626214275033,0.2606566705736669,0.22537262994714266,2930444711433089.0,0.0,-40691388364836.0,0.3288641677623663,-0.4807220386069071,0.20070067014617685,0.7877016705342582,-0.04364461813608503,0.04619626214275033,0.2606566705736669
0.2,-92.3695847243362,17.997011145508665,269.3348735304648,285.3021322948522,0,7.733346068691314,180.59998222238025,11.032666281617383,18.97782911768216,-0.0044680254919882145,0.0045183588215458315,0.012359152323995204,0.027228702029553055,-0.04364461813608503,0.04619626214275033,0.2606566705736669,0.22537262994714266,2930444711433089.0,0.0,-40691388364836.0,0.3288641677623663,-0.4807220386069071,0.20070067014617685,0.7877016705342582,-0.04364461813608503,0.04619626214275033,0.2606566705736669
0.3,-92.37046797306677,17.997924944012247,269.3387160124029,285.3061033330053,0,7.753378160529021,180.89994000119998,11.032665320996898,18.97795720041343,-0.008832487305596716,0.009137985035820863,0.03842481938136189,0.027228702029553055,-0.04364461813608503,0.04619626214275033,0.2606566705736669,0.22537262994714266,2930444711433089.0,0.0,-40691388364836.0,0.3165414836035606,-0.5391502401938013,0.2287109732648942,0.7461968898120979,-0.04364461813608503,0.04619626214275033,0.2606566705736669
0.5,-92.37134111595256,17.99884888910431,269.3430996973098,285.310582655897,0,7.793389335514455,181.4997222376539,11.032664225075672,18.97810332324366,-0.004365714428971046,0.0046197254603086435,0.0219184245344195,0.027228702029553055,0.02233386438312835,-0.022591297877561096,-0.08253197423471195,0.22537262994714266,2930444711433089.0,0.0,-40691388364836.0,0.3163767681986982,-0.5515944001466379,0.23766406881083757,0.7342786587306589,0.02233386438312835,-0.022591297877561096,-0.08253197423471195
0.6,-92.37220388374217,17.99978295041029,269.3474454367244,285.31502343881357,0,7.813402467326133,181.79952003839853,11.03266313864082,18.978248181224146,-0.008627677896129173,0.009340613059798388,0.043457394145889346,0.034217942603510264,-0.04261963467158128,0.04720887599489745,0.2153896961146985,0.22537262994714266,2930444711433089.0,0.0,-40691388364836.0,0.3208438308660608,-0.549352157802337,0.24041811163541188,0.7331238466390037,-0.04261963467158128,0.04720887599489745,0.2153896961146985
0.81,-92.37305650741015,18.000727157332328,269.35001968225174,285.31778922728125,0,7.855323107926513,182.42881919217493,11.032662495079437,18.97833398940839,-0.004060112704673016,0.004496223438281497,0.012258312034960212,0.027470059619902464,0.021750310435505498,-0.023068522007223282,-0.14856705767109105,0.22126340378141202,2930444711433089.0,0.0,-40691388364836.0,0.34493623842384147,-0.482237877416567,0.2142917858733423,0.7762374968487342,0.021750310435505498,-0.023068522007223282,-0.14856705767109105
0.9,-92.37389872815736,18.001681409049716,269.35422728558433,285.32209423107605,0,7.873299371251866,182.698380291575,11.032661443178604,18.978474242852812,-0.009358008302247834,0.010602796859870981,0.04675114813987119,0.02635556424651636,-0.05886550663972021,0.06785081579543874,0.383253734499011,0.2339933161071878,2930444711433089.0,0.0,-40691388364836.0,0.33023384864691585,-0.5432763955758932,0.24511857874659773,0.731924344158028,-0.05886550663972021,0.06785081579543874,0.383253734499011
1.1,-92.37473075741138,18.002645754519353,269.3537903985242,285.3220120122509,0,7.913094505659592,183.29704301743396,11.032661552400368,18.97845967995081,-0.0041601462701379415,0.004821727348183201,-0.0021844353005917574,0.02200535182488482,0.025989310160549454,-0.028905347558438894,-0.24467791720231466,0.20180956026176577,3031130832886470.5,0.0,-20448293619678.855,0.4107110187803692,0.1495330243953964,-0.06848152946639825,0.8968091289619546,0.025989310160549454,-0.028905347558438894,-0.24467791720231466
1.2,-92.37555245682705,18.00362014247623,269.35495257300516,285.32343665662034,0,7.93297394030789,183.59616122861277,11.032661261856749,18.97849841910017,-0.008216994156668999,0.009743879568766557,0.01162174480953128,0.02242549460875676,-0.04056847886531063,0.049221522205833625,0.13806180110123056,0.2010945534777357,3031130832886470.5,0.0,-20448293619678.855,0.39303351679337256,-0.32762288712159443,0.1522830173898295,0.8455754142155467,-0.04056847886531063,0.049221522205833625,0.13806180110123056
1.4,-92.3763637182867,18.004604521433855,269.359482061114,285.32803741311164,0,7.972681049899613,184.19390487759242,11.032660129484722,18.978649402037135,-0.0040563072982280355,0.00492189478812577,0.022647440544290024,0.014927651909834394,0.020803434292204822,-0.02410992390320394,0.05512847867379373,0.1287465599826912,3031130832886470.5,0.0,-20448293619678.855,0.34010649025927714,-0.5460103571168907,0.25755516198334133,0.7210170620313617,0.020803434292204822,-0.02410992390320394,0.05512847867379373
1.5,-92.3771647639007,18.005598929684773,269.3604082151129,285.3292338272505,0,7.992480347098327,184.49250374910727,11.032659897946221,18.978680273837096,-0.00801045613997075,0.009944082509178989,0.009261539988756331,0.021533111988327008,-0.039541488417427106,0.050221877210532145,-0.1338590055553368,0.13715130704777084,3031130832886470.5,0.0,-20448293619678.855,0.4105939362994531,-0.27839549231055216,0.13322594027735882,0.8579973299331994,-0.039541488417427106,0.050221877210532145,-0.1338590055553368
1.7,-92.37795541600772,18.006603305301013,269.3622850874611,285.3313250187842,0,8.031987549008603,185.08908923171782,11.032659428728135,18.978742836248703,-0.003953260535141113,0.0050218780812016925,0.00938436174095614,0.0203134984939944,0.020285978024148187,-0.024611022139886488,0.0006141087609990403,0.1359593147795282,3031130832886470.5,0.0,-20448293619678.855,0.38606159739499357,-0.4205539908388609,0.20416428771717768,0.7952406726439932,0.020285978024148187,-0.024611022139886488,0.0006141087609990403
1.8,-92.37873555717523,18.007617616134596,269.3660495308367,285.3351953671341,0,8.051719642160014,185.38704932800138,11.03265848761729,18.978868317694555,-0.007801411675103502,0.010143108335824982,0.03764443375587231,0.02362768092547171,-0.03848151139962386,0.05121230254623285,0.28260072014916143,0.18236801419003806,3031130832886470.5,0.0,-20448293619678.855,0.3591528413496247,-0.5224008585372115,0.25725065226797295,0.7293344098956103,-0.03848151139962386,0.05121230254623285,0.28260072014916143
2.0,-92.37950538019982,18.008641879817993,269.3678748981585,285.33723245275206,0,8.091017410571707,185.98223801800413,11.03265803127546,18.97892916327195,-0.0038491151229180795,0.005121318416989596,0.009126836609141266,0.022663251795938734,0.019761482760927117,-0.025108949594176935,-0.14258798573365525,0.18251836033635013,3031130832886470.5,0.0,-20448293619678.855,0.39640072673423443,-0.4126432483416443,0.20605998339681028,0.7938080981478668,0.019761482760927117,-0.025108949594176935,-0.14258798573365525
2.1,-92.38026468810763,18.00967604376467,269.3716740426079,285.3411300733968,0,8.110636540118279,186.27944015899064,11.032657081489347,18.979055801420262,-0.007593079078134217,0.010341639466773236,0.03799144449374122,0.02845896475868994,-0.03743963955216134,0.052203210497836355,0.2886460788459993,0.2362460939689374,3031130832886470.5,0.0,-20448293619678.855,0.3670027229897794,-0.5202216474010407,0.2634270445344872,0.7247652248150843,-0.03743963955216134,0.052203210497836355,0.2886460788459993
2.3,-92.38101365415464,18.010720095169518,269.37344801765045,285.34311314456755,0,8.149689527246881,186.87299398884537,11.032656637995586,18.979114933921682,-0.003744830235064006,0.00522025702423435,0.008869875212838009,0.0224481058126282,0.019241244215351082,-0.025606912212694465,-0.14560784640451624,0.20823074315704976,3031130832886470.5,0.0,-20448293619678.855,0.4067497480726576,-0.40446427386382267,0.20762401560671356,0.7923733726936965,0.019241244215351082,-0.025606912212694465,-0.14560784640451624
2.4,-92.38175207182717,18.0117740010094,269.3772704770579,285.3470272636356,0,8.169177957624848,187.16931929764107,11.032655682380735,18.979242349235264,-0.007384176725224727,0.010539058398819625,0.038224594074449635,0.023621400025282673,-0.03639346490160718,0.05318801374585271,0.293547188616116,0.19760767018744468,3031130832886470.5,0.0,-20448293619678.855,0.3748860551599709,-0.517609279524257,0.26935300768598025,0.7204096311457053,-0.03639346490160718,0.05318801374585271,0.293547188616116
2.61,-92.38248007484205,18.01283774804366,269.37884927492956,285.3488205428597,0,8.209882119087215,187.79054958741378,11.032655287681267,18.97929497583099,-0.0034666810232611826,0.005065462067898623,0.007518085103204917,0.020653702522101886,0.018654741437921642,-0.026064744432957157,-0.14622147129164154,0.15564731673356172,3031130832886470.5,0.0,-20448293619678.855,0.42144776060231925,-0.3791961522219254,0.1999832568287769,0.7991237452432083,0.018654741437921642,-0.026064744432957157,-0.14622147129164154
2.7,-92.38319758714725,18.013911322814614,269.37967286571427,285.34989810899066,0,8.227259602034804,188.0563308041621,11.03265508178357,18.97932242885714,-0.00797235894667536,0.011928608566178214,0.009151008718946358,0.023296228270335048,-0.05006308803793515,0.07625718331421742,0.018143595730460396,0.14110964730470638,-5.040245344077775,0.0,0.4384101238315111,0.45248248181632056,-0.24701804547480113,0.13201625044811957,0.8466483322352745,-0.05006308803793515,0.07625718331421742,0.018143595730460396
2.9,-92.38390454292194,18.01499468164808,269.38455660423193,285.3548057924277,0,8.26575001625199,188.64590342175129,11.032653860848942,18.979485220141065,-0.003534778873444116,0.005416794167327772,0.024418692588312783,0.017928028576527446,0.02218790036615625,-0.03255907199425225,0.07633841934683222,0.09128420524445104,0.0386125677149181,0.0,-0.442914919300091,0.37736827464741013,-0.5363091800943344,0.290424027443371,0.6968640706190498,0.02218790036615625,-0.03255907199425225,0.07633841934683222
3.0,-92.38460102657706,18.0160878206539,269.3865960456952,285.35702559475897,0,8.28490637377963,188.94011988577776,11.032653350988577,18.979553201523174,-0.00696483655119095,0.010931390058210855,0.020394414632960416,0.025415504479529876,-0.03430057677746831,0.05514595890883078,-0.04024277955352363,0.13669114503225513,17.32116716986748,0.0,-0.4348146026341112,0.4215510581727197,-0.4221177117328432,0.23156789542273887,0.7684319440291196,-0.03430057677746831,0.05514595890883078,-0.04024277955352363
3.21,-92.38528696275557,18.017190715726468,269.38911404573116,285.35969437680143,0,8.324922417642766,189.55666554280648,11.032652721488567,18.979637134857704,-0.0032663627548247735,0.005251881297936513,0.011990476361591262,0.026646951466373477,0.017611779982696082,-0.027045279810830207,-0.040018753673186455,0.14207392979892236,6.558584951330897,0.0,0.4391459679335469,0.4147840203955709,-0.4548652282477432,0.25276315430417273,0.7464332712184123,0.017611779982696082,-0.027045279810830207,-0.040018753673186455
3.3,-92.38596228633277,18.018303312545246,269.39315236040255,285.3637955671841,0,8.342017580393762,189.82033303863912,11.0326517119099,18.979771745346753,-0.007503595302201435,0.01236218687531557,0.04487016301545238,0.030719489035970698,-0.04708036163751854,0.07900339530421188,0.36532985170956855,0.1697921745556289,4606931606912.029,0.0,-9647935475173.8,0.3964561795773974,-0.513068312194373,0.2887635998891056,0.7044139323409185,-0.04708036163751854,0.07900339530421188,0.36532985170956855
3.5,-92.38662709241672,18.019425596575324,269.39759994622955,285.3682803346099,0,8.379771614373198,190.40498125354344,11.032650600013442,18.97991999820765,-0.0033240304197335005,0.00561142015039095,0.02223792913497389,0.030711815493247762,0.02089782441233965,-0.03375383362462307,-0.11316116940239235,0.17601554349893903,4606931606912.029,0.0,-9647935475173.8,0.3963385643554687,-0.5207673947136252,0.2967925052435423,0.6954360300121725,0.02089782441233965,-0.03375383362462307,-0.11316116940239235
3.6,-92.38728125634846,18.020557563067946,269.4019709602113,285.3726899863931,0,8.398568176152292,190.69661818922106,11.032649507259947,18.980065698673712,-0.006541639317418906,0.011319664926219265,0.04371013981767642,0.03742596822571076,-0.032176088976854034,0.05708244775828309,0.21472210682702514,0.21160865033094542,4606931606912.029,0.0,-9647935475173.8,0.40088063945384156,-0.5173037457123906,0.2985232055187971,0.6946765026613406,-0.032176088976854034,0.05708244775828309,0.21472210682702514
3.8,-92.38792488370241,18.021699177061066,269.4066148598472,285.3773544550919,0,8.435907087424438,191.2784529096354,11.032648346285038,18.98022049532824,-0.0032181367697603535,0.005708069965599812,0.023219498179400975,0.033005637155019966,0.016617512738292785,-0.0280579748030973,-0.10245320819137738,0.15725819721228815,4606931606912.029,0.0,-9647935475173.8,0.4022130227513546,-0.5210867889191314,0.3044146802895856,0.6884946950902063,0.016617512738292785,-0.0280579748030973,-0.10245320819137738
3.9,-92.38855785028667,18.022850413379878,269.4111340031583,285.381898310924,0,8.454488170277905,191.56862483514698,11.03264721649921,18.98037113343861,-0.006329665842628169,0.011512363188117537,0.04519143311085823,0.03660439539421369,-0.031115290728678125,0.05804293222517719,0.21971934931457235,0.16998035893759905,4606931606912.029,0.0,-9647935475173.8,0.407082870999917,-0.516755141395767,0.3055920737184971,0.6883757291333958,-0.031115290728678125,0.05804293222517719,0.21971934931457235
4.11,-92.38918025214333,18.024011246637397,269.4162250487086,285.38697925549855,0,8.493214749186563,192.17629692654444,11.032645943737823,18.980540834956955,-0.0029638183650468933,0.005527777416755178,0.024243074049189996,0.034253424989936034,0.016027845131339376,-0.02849802748267784,-0.09975409076984854,0.1346938010990024,4606931606912.029,0.0,-9647935475173.8,0.406074165344539,-0.5252858178747039,0.3143845889869246,0.678484275416138,0.016027845131339376,-0.02849802748267784,-0.09975409076984854
4.2,-92.38979199554875,18.025181651235002,269.41968685562665,285.39051929579705,0,8.509717774675407,192.43600418538512,11.032645078286093,18.98065622852089,-0.00679714894905223,0.013004495528947935,0.03846452131155179,0.037460148246407504,-0.04259256204450381,0.08307464569103076,0.1580160806929091,0.1294746780470018,4606931606912.029,0.0,-9647935475173.8,0.42664580618170816,-0.48520137700139293,0.29387717656624646,0.704406973926979,-0.04259256204450381,0.08307464569103076,0.1580160806929091
4.4,-92.39039305701392,18.02636162136301,269.4263298836264,285.39705968543956,0,8.546142228968263,193.01151495687571,11.032643417529092,18.980877662787545,-0.0030053073258784454,0.005899850640034282,0.03321513999878786,0.03429531941189372,0.018959208115868906,-0.035523224444568235,-0.026246906563819627,0.09351469906261822,4606931606912.029,0.0,-9647935475173.8,0.40400162518019506,-0.5407546521943573,0.33141575352723407,0.6591894198907448,0.018959208115868906,-0.035523224444568235,-0.026246906563819627
4.5,-92.3909834632847,18.02755106100123,269.4301199930287,285.4009039614763,0,8.564232268152749,193.2984092997603,11.032642470001742,18.981003999767623,-0.005904062707742262,0.011894396382210501,0.03790109402302746,0.039112111263962426,-0.02898755381863827,0.059945457421762396,0.04685954024239612,0.10860730681766542,4606931606912.029,0.0,-9647935475173.8,0.4298337944349741,-0.4916667537842127,0.3048547266349919,0.6932317852156168,-0.02898755381863827,0.059945457421762396,0.04685954024239612
4.7,-92.39156319134217,18.028750013919556,269.43622404478214,285.4069298449395,0,8.600134811205958,193.87041214631236,11.032640943988804,18.981207468159404,-0.0028986402873698554,0.005994764591630281,0.030520258767126024,0.037798873036261386,0.015027112101862021,-0.029498158952901074,-0.036904176279507137,0.08679852227318494,4606931606912.029,0.0,-9647935475173.8,0.41384134689527347,-0.5313563633311534,0.33328628898963136,0.659784816678072,0.015027112101862021,-0.029498158952901074,-0.036904176279507137
4.8,-92.39213220840284,18.02995844367854,269.4409515004844,285.4116533027027,0,8.61796786608781,194.1554952277253,11.032639762124878,18.981365050016148,-0.005690170606698095,0.012084297589858338,0.04727455702266087,0.040857933879676026,-0.027915303193282497,0.06089532998228079,0.16754298255534902,0.10708539167729222,4606931606912.029,0.0,-9647935475173.8,0.4272171634492238,-0.509480705868307,0.3232359608493129,0.6733746499654946,-0.027915303193282497,0.06089532998228079,0.16754298255534902
5.0,-92.39269054191904,18.031176303629966,269.44774102240336,285.4183205867198,0,8.65332848743244,194.72376135582684,11.032638064744399,18.981591367413447,-0.0027916675809791488,0.006089299757121575,0.033947609594804334,0.04065029571196409,0.01449251512859472,-0.02997498916368379,-0.06663473713928261,0.10182464446534759,4606931606912.029,0.0,-9647935475173.8,0.41718336165348824,-0.5344329764583413,0.34290688808640557,0.6501955879089539,0.01449251512859472,-0.02997498916368379,-0.06663473713928261
5.1,-92.39323812957905,18.032403586917443,269.45247017349755,285.4230399140724,0,8.67087919550079,195.00691914633666,11.032636882456625,18.981749005783254,-0.005475876600087323,0.012272832874771255,0.04729151094181833,0.044263751830091104,-0.026842090191081837,0.06183533117649702,0.1334390134701404,0.11425639609901357,4606931606912.029,0.0,-9647935475173.8,0.43431293452824915,-0.5056503979401682,0.3280883931882651,0.6693638444221144,-0.026842090191081837,0.06183533117649702,0.1334390134701404
5.3,-92.39377502930755,18.033640236476995,269.4601775174376,285.4305679356609,0,8.70566845758407,195.57122125711322,11.03263495562064,18.982005917247918,-0.002684498642508968,0.006183247797757469,0.03853671970034608,0.04286490053383043,0.013956889787891762,-0.0304479253850689,-0.04377395620736121,0.08686242691257473,4606931606912.029,0.0,-9647935475173.8,0.4199529536795404,-0.5378940861911267,0.3528709471086915,0.6401496414300781,0.013956889787891762,-0.0304479253850689,-0.04377395620736121
5.4,-92.39430115926571,18.03488627503767,269.46491891862695,285.43529308318693,0,8.722921172492494,195.85234049737906,11.032633770270342,18.982163963954232,-0.005261299581604789,0.012460385606765035,0.047414011893351676,0.05335980721799307,-0.025768009390958076,0.06277137809007532,0.08877292193005552,0.17188277400743188,4606931606912.029,0.0,-9647935475173.8,0.4411992447507281,-0.5019851868956032,0.33294058173737845,0.6652102431571162,-0.025768009390958076,0.06277137809007532,0.08877292193005552
5.61,-92.39481655785157,18.036141615122126,269.4736617422226,285.443792897799,0,8.758802992017447,196.44038273173368,11.032631584564443,18.98245539140742,-0.0024542789802916606,0.005977809925977476,0.04163249331256902,0.05049426748379972,0.013366764768157758,-0.030869408003750286,-0.027531040860869802,0.19423850156753417,227461261035.9712,0.0,4534947187654.051,0.4228844564892589,-0.5404090911468373,0.3623098546662513,0.6307601127824691,0.013366764768157758,-0.030869408003750286,-0.027531040860869802
5.7,-92.39532117370027,18.037406289047247,269.4813794541554,285.4513220725065,0,8.774077892009492,196.69142112358423,11.03262965513646,18.982712648471846,-0.005606842763307272,0.014051932501344176,0.08575235480887197,0.06130533733437584,-0.035028486477951294,0.08971247305963014,0.4902206832922558,0.3000341600299311,227461261035.9712,0.0,4534947187654.051,0.4297555779390578,-0.5320858103443584,0.3605714186773532,0.6341790643765014,-0.035028486477951294,0.08971247305963014,0.4902206832922558
5.9,-92.39581503568428,18.038680228924736,269.48821142115156,285.4580121760135,0,8.807604160037084,197.24711973558604,11.032627947144713,18.982940380705053,-0.002469309920059002,0.006369699387445132,0.034159834980869136,0.06446542656381692,0.015687664216241338,-0.038411165569495184,-0.25796259914001396,0.3059466923700185,227461261035.9712,0.0,4534947187654.051,0.4369689361182346,-0.5230836308347354,0.3582327612256962,0.6380524686928667,0.015687664216241338,-0.038411165569495184,-0.25796259914001396
6.0,-92.39629808291362,18.039963406661762,269.4974277107527,285.4669503144851,0,8.824259223897597,197.52382540388928,11.032625643072311,18.983247590358424,-0.0048304722933778695,0.012831777370259135,0.09216289601113237,0.06591268243656158,-0.023611623733188758,0.06462077982814025,0.5800306103026344,0.3346095986937556,227461261035.9712,0.0,4534947187654.051,0.4309863418653419,-0.5369635706616851,0.37161261879649643,0.6227559381162046,-0.023611623733188758,0.06462077982814025,0.5800306103026344
6.2,-92.39677032473618,18.04125581396155,269.5103759913361,285.4794087929604,0,8.85717408098797,198.07488797572614,11.032622406002165,18.983679199711204,-0.002361209112820004,0.00646203649893095,0.06474140291714997,0.06306797793921008,0.012346315902789316,-0.031848704356640896,-0.13710746546991187,0.2607427086480155,227461261035.9712,0.0,4534947187654.051,0.426087482533924,-0.5480108239304676,0.38320728907204765,0.6093322309586168,0.012346315902789316,-0.031848704356640896,-0.13710746546991187
6.3,-92.3972317807379,18.042557412324012,269.51511563213575,285.484114922221,0,8.873440672205897,198.34922038768065,11.032621221091965,18.98383718773786,-0.004614560017159891,0.013015983624633567,0.04739640799641637,0.06594412238082491,-0.022533509043398948,0.0655394712570264,-0.17344994920733664,0.2610042734494953,227461261035.9712,0.0,4534947187654.051,0.4615489516582547,-0.4901382937680768,0.34626110747477,0.6533301337422224,-0.022533509043398948,0.0655394712570264,-0.17344994920733664
6.5,-92.39768241074299,18.043868153046397,269.5296202032623,285.4980368754151,0,8.905669013504703,198.89542650167127,11.032617594949183,18.984320673442078,-0.002253150025453008,0.006553703611924527,0.07252285563282605,0.06299462001546155,0.011807049958534405,-0.03231140006354517,0.1256322381820483,0.17586091152173186,227461261035.9712,0.0,4534947187654.051,0.4298482168597022,-0.5475097117801357,0.39073052039655615,0.6023232407931836,0.011807049958534405,-0.03231140006354517,0.1256322381820483
6.6,-92.39812222481419,18.04518803722388,269.5343411757234,285.50271955797854,0,8.921577115704102,199.16727592796997,11.03261641470607,18.98447803919078,-0.004398140711998637,0.01319884177483748,0.0472097246108662,0.05981907420716043,-0.021449906865456368,0.06645138162912977,-0.25313131021959945,0.21103871951714187,227461261035.9712,0.0,4534947187654.051,0.4682891079397971,-0.4858231985749653,0.35019863053993217,0.6496476354757977,-0.021449906865456368,0.06645138162912977,-0.25313131021959945
6.8,-92.39855116325298,18.04651703575025,269.5499648214441,285.51769221789334,0,8.953085696251378,199.70840710895135,11.032612508794639,18.98499882738147,-0.0021446921939372015,0.006644992631841256,0.0781182286036141,0.06726978459326999,0.011267242590307168,-0.03276924571498109,0.15454251996373938,0.21344459745077987,227461261035.9712,0.0,4534947187654.051,0.4343190732984317,-0.5456136299462635,0.39722942356756963,0.5965580394548629,0.011267242590307168,-0.03276924571498109,0.15454251996373938
6.9,-92.39896929659976,18.047855109318512,269.5546838132865,285.5223671917873,0,8.9686212025768,199.9776648134484,11.032611329046677,18.98515612710955,-0.004181333467840864,0.013380735682630913,0.04718991842366879,0.08639145818389074,-0.020366412739036516,0.06735743050789621,-0.30928310179945145,0.35107603951431093,227461261035.9712,0.0,4534947187654.051,0.4747549673174207,-0.4818078868249082,0.3542244804017631,0.6457506474521355,-0.020366412739036516,0.06735743050789621,-0.30928310179945145
7.1,-92.39937657563412,18.049202218421552,269.57195072507045,285.53888546046954,0,8.999387049293778,200.51350461616315,11.032607012318731,18.985731690835685,-0.0020363951718138725,0.006735545515201859,0.08633455891981642,0.08364103224138661,0.010724691480134996,-0.033225950837145385,0.19572320248073885,0.4318643924465683,227461261035.9712,0.0,4534947187654.051,0.43827146646392146,-0.544209034277337,0.40400368705031636,0.5903690960274276,0.010724691480134996,-0.033225950837145385,0.19572320248073885
7.2,-92.39977294137496,18.050558353352795,269.5887375315929,285.5549476026699,0,9.014656719258877,200.78006289936673,11.032602815617102,18.986291251053096,-0.003963657408405631,0.01356134931242529,0.16786806522475128,0.10473222059117435,-0.019272622365917483,0.06825803797223395,0.8153350630493442,0.6977020261642395,227461261035.9712,0.0,4534947187654.051,0.441531863775834,-0.5415582489951257,0.4059311695473361,0.5890536153915905,-0.019272622365917483,0.06825803797223395,0.8153350630493442
7.4,-92.40015850508078,18.051923474206838,269.5956872086481,285.56171976367193,0,9.04453269534277,201.31039699503822,11.032601078197837,18.98652290695494,-0.0019278185290971788,0.006825604270215274,0.034748385275804566,0.1154283020839478,0.010179194396542253,-0.03367872521105006,-0.665598399744733,0.7115898652477544,227461261035.9712,0.0,4534947187654.051,0.4673932398731895,-0.5043453924741167,0.3816288285052533,0.6176882074839056,0.010179194396542253,-0.03367872521105006,-0.665598399744733
7.5,-92.40053312824983,18.053297540880116,269.6140205330471,285.5792361893257,0,9.05941772537714,201.57414923718915,11.032596494866738,18.987134017768238,-0.003746231690513482,0.01374066673278667,0.18333324399009207,0.10910052380461743,-0.018184131614163095,0.06915062462571421,1.4858485871428804,0.7844899219765413,28476717828795.555,0.0,32107108688.99812,0.4455449716691324,-0.5397252711067463,0.4122753144909356,0.583279842794607,-0.018184131614163095,0.06915062462571421,1.4858485871428804
7.71,-92.40089687262028,18.05468054307159,269.63554188263794,285.59975959149676,0,9.09006102104583,202.1248939586155,11.03259111452934,18.987851396087933,-0.0017321160497442095,0.0065857247213059415,0.1024826170992453,0.09836846174627235,0.00959102686080606,-0.034071152435622525,-0.3850029851945085,0.6833798470906872,1449865059695.9448,0.0,-4095213036948.072,0.4458353439606397,-0.5411087330042101,0.41719391868611067,0.5782572259413655,0.00959102686080606,-0.034071152435622525,-0.3850029851945085
7.8,-92.4012497501704,18.056072440283383,269.6402773363248,285.604432510023,0,9.10296161176407,202.35960620296817,11.03258993066592,18.98800924454416,-0.003920861667931307,0.015465524575475367,0.052616152076249596,0.10022128216381858,-0.024319395757634456,0.09866444282410489,-0.554071833588842,0.6811159006620409,-3.8322202001602648,0.0,-0.5240544792733829,0.49323487521329656,-0.4701738621941859,0.36584874303210063,0.6338853164449847,-0.024319395757634456,0.09866444282410489,-0.554071833588842
8.0,-92.4015916931188,18.05747318182146,269.6631922740874,285.6262658660535,0,9.13134410453992,202.87829479190856,11.032584201931478,18.988773075802914,-0.0017097147420486165,0.007003707690387267,0.11457468881303602,0.0888783091701357,0.011055734629413443,-0.042309084425440464,0.30979268368393187,0.47241517341643996,-3.8322202001602648,0.0,-0.5240544792733829,0.4502094519217783,-0.5383911587137138,0.4227713408699729,0.573333064595268,0.011055734629413443,-0.042309084425440464,0.30979268368393187
8.11,-92.40192276392452,18.058882776796327,269.667894577001,285.6309015901621,0,9.146631566859252,203.16184574156526,11.03258302635575,18.988929819233366,-0.003009734597402397,0.012814499771513515,0.04274820830532526,0.07728878968816102,-0.011818362321398067,0.05282538255569343,-0.6529680046155557,0.5485093557011916,-3.8322202001602648,0.0,-0.5240544792733829,0.49958790937250747,-0.4655832659127173,0.36890124069945796,0.6305204341821571,-0.011818362321398067,0.05282538255569343,-0.6529680046155557
8.3,-92.40224286528725,18.06030117412368,269.6920132272551,285.6538656549312,0,9.172782874492476,203.64867307169013,11.032576996693185,18.989733774241838,-0.0016847440143782078,0.0074652490913288665,0.12694026449516405,0.09300093992871887,0.006973634647495687,-0.028153950948340063,0.4431160852096748,0.5313653463635928,-3.8322202001602648,0.0,-0.5240544792733829,0.45463973457521406,-0.5354239133506389,0.42805582870141556,0.5686757883648739,0.006973634647495687,-0.028153950948340063,0.4431160852096748
8.41,-92.4025520901475,18.061728342525118,269.69671540817285,285.65849534968953,0,9.187587574809584,203.92879124602558,11.032575821147956,18.98989051360576,-0.002811135093142281,0.012974258194892747,0.04274709925249993,0.1169005607783303,-0.010239918897855263,0.05008190094149008,-0.7653924112969506,0.6703140164933217,-3.8322202001602648,0.0,-0.5240544792733829,0.5054755510337317,-0.46161982748381725,0.372311892791429,0.6267259821221869,-0.010239918897855263,0.05008190094149008,-0.7653924112969506
8.6,-92.40285030168666,18.063164240528813,269.72204610423046,285.68259800153885,0,9.212905586832859,204.40959219755445,11.032569488473943,18.990734870141015,-0.001569534416633268,0.007557357914185585,0.13331945293478084,0.11509635186707512,0.006534740402679032,-0.02851000147740619,0.47669659832779554,0.7383101009984828,-3.8322202001602648,0.0,-0.5240544792733829,0.458993988560858,-0.5323983397488133,0.43318882993533514,0.564113431782082,0.006534740402679032,-0.02851000147740619,0.47669659832779554
8.7,-92.4031375933273,18.064608846470215,269.74542970107586,285.70485955700053,0,9.226112171061768,204.6610771556343,11.03256364257473,18.991514323369195,-0.002872916406460046,0.014446059414012832,0.23383596845406002,0.13041893811940258,-0.013033819898267823,0.06888701499827271,1.0051651551927954,0.9304097434749213,268430567359.23444,0.0,-1935184446691.9812,0.46247970175398856,-0.5291329315033866,0.434265376931644,0.5635108239089924,-0.013033819898267823,0.06888701499827271,1.0051651551927954
8.9,-92.40341399873317,18.06606212849275,269.7524163855476,285.71163725913175,0,9.251667658909124,205.16074781199663,11.032561895903612,18.991747212851585,-0.0013820270293507446,0.007266410112673999,0.034933422358562706,0.15207182877036668,0.007454446885546467,-0.03589824650669397,-0.9945127304774813,0.8334031524834227,6.783319254141712,0.0,-0.17767700254172497,0.4953775194421237,-0.48502502944520154,0.40147086806245486,0.5984755434771154,0.007454446885546467,-0.03589824650669397,-0.9945127304774813
9.02,-92.40367939180949,18.067524064548508,269.77682524569383,285.7348610698614,0,9.266905376620768,205.45840883930293,11.032555793688577,18.992560841523126,-0.002211608969323242,0.01218280046465152,0.2034071678854364,0.13510791344980486,-0.006913182833104188,0.040969919599812936,1.4039478793906233,0.9511876262970345,2.552271952612206,0.0,0.3332251434811099,0.4667149324229124,-0.5260711050146034,0.43916869702767913,0.5590681710428532,-0.006913182833104188,0.040969919599812936,1.4039478793906233
9.2,-92.4039338167029,18.068994602398973,269.8043293707909,285.76100450895217,0,9.289246533780641,205.90183946278617,11.032548917657302,18.99347764569303,-0.0014134716300715276,0.008169654724810028,0.15280069498386561,0.11675016482272771,0.004434096329176197,-0.02229525411023054,-0.28114707167539366,0.8459077502340255,-84500457305.70897,0.0,-1817408009428.2305,0.46756331678066043,-0.526085663374045,0.442880930150676,0.5554051685951714,0.004434096329176197,-0.02229525411023054,-0.28114707167539366
9.3,-92.40417732780175,18.07047372961572,269.8089653513622,285.7655538941199,0,9.301329535281177,206.14658222417873,11.03254775866216,18.99363217837874,-0.002435110988443477,0.014791272167471238,0.046359805712653974,0.11941799382916123,-0.01021639358371935,0.06621617442661115,-1.0644088927121014,0.8387823906628686,112778296.9732422,0.0,-17082245397.701954,0.5232688409497892,-0.4485537287221638,0.38074566852547165,0.6164592512401769,-0.01021639358371935,0.06621617442661115,-1.0644088927121014
9.5,-92.40440982973614,18.07196140358113,269.83742767919597,285.7925963377632,0,9.325205286370707,206.63257072314389,11.0325406430802,18.994580922639866,-0.0011625096719569724,0.007438369827053063,0.1423116391688955,0.10701779221438157,0.006363006582432546,-0.036764511702091,0.4797591672812094,0.6530903299700136,112778296.95843682,0.0,-17082245397.21046,0.47176802213056496,-0.5228348272847653,0.44746994648460675,0.551225293021091,0.006363006582432546,-0.036764511702091,0.4797591672812094
9.6,-92.40463140737808,18.073457591489117,269.84209334736454,285.7971677902574,0,9.336804070075642,206.87379486130766,11.032539476663159,18.99473644491215,-0.002215776419376433,0.014961879079855632,0.04665668168570408,0.08530673758626227,-0.010532667474194643,0.07523509252802595,-0.9565495748319176,0.777635522380438,-111544042054.84045,0.0,-1786839846557.964,0.5283713274522822,-0.4452364177968278,0.3841552183291976,0.6123830833916041,-0.010532667474194643,0.07523509252802595,-0.9565495748319176
9.8,-92.40484197584156,18.074962250345838,269.87040915024176,285.8240661943122,0,9.359698832486359,207.35264931030852,11.032532397712439,18.995680305008058,-0.0010528423174349598,0.0075232942836045025,0.14157901438608103,0.10365793642254198,0.005814670509707335,-0.03719292398125545,0.4746116635018822,0.6625484143439422,-111544042050.27762,0.0,-1786839846558.4458,0.4763296447033899,-0.5190348695538515,0.4514567396501472,0.5476309761038158,0.005814670509707335,-0.03719292398125545,0.4746116635018822
9.91,-92.40504160048273,18.07647536697043,269.87505668352196,285.8286145486729,0,9.371899067548618,207.61395197282562,11.032531235829119,18.995835222784066,-0.0018147694651754066,0.013755605678124031,0.042250302547328054,0.12535717546930863,-0.006926610434004097,0.05665737631381419,-0.9029882894432135,0.7873771079710404,-27043584748.409958,0.0,30568162869.469826,0.5339469748254188,-0.44101733875278676,0.38665564483465253,0.6090170336794303,-0.006926610434004097,0.05665737631381419,-0.9029882894432135
10.11,-92.40523019689991,18.07799689799575,269.90311064423724,285.8552600093645,0,9.393757670112091,208.08523338561238,11.03252422233894,18.996770354807907,-0.0009429820858741811,0.007607655126591366,0.14026980357641655,0.12299531075960121,0.004358936896506143,-0.030739752757663434,0.4900975051454442,0.821065269697209,-250280256455.68497,0.0,-3488715618882.43,0.4808447010555052,-0.5152009962794091,0.4552836331688052,0.5441260150628335,0.004358936896506143,-0.030739752757663434,0.4900975051454442
10.21,-92.40540774093373,18.079526809869087,269.92816403077563,285.8790695494553,0,9.404543563826579,208.31900697273568,11.032517958992306,18.997605467692523,-0.0017754403381786436,0.015299118733373756,0.25053386538388267,0.14430823664648415,-0.008324582523044506,0.07691463606782281,1.1026406180746455,1.1491516985411185,-250280256460.41592,0.0,-3488715618882.4434,0.48451312270701663,-0.5115763838741348,0.4556419395922104,0.5439917832758212,-0.008324582523044506,0.07691463606782281,1.1026406180746455
10.4,-92.40557437866723,18.081065068852926,269.93506794289914,285.88573940582114,0,9.42415913391567,208.75970075385504,11.032516233014276,18.997835598096636,-0.000877040702631039,0.00809609991494138,0.0363363795973951,0.161313685142848,0.004728419134461089,-0.0379106253601705,-1.1273551883499375,1.0870442028373646,30091575797737.082,0.0,-32073758471.21836,0.5214013300320584,-0.4651498849725769,0.4174820969228617,0.5809345370174589,0.004728419134461089,-0.0379106253601705,-1.1273551883499375
10.5,-92.40572996642598,18.082611641025682,269.959853981761,285.9092907483804,0,9.434444991005645,208.9897959256961,11.03251003650456,18.998661799392032,-0.0015558775875490537,0.015465721727565607,0.24786038861862014,0.14286873568524894,-0.006788368849180171,0.07369621812624252,2.1152400902122577,1.1568268329466265,30091575797737.082,0.0,-32073758471.21836,0.48893444104962785,-0.5077505776418321,0.4592329433348244,0.5405900174956136,-0.006788368849180171,0.07369621812624252,2.1152400902122577
10.7,-92.40587456077802,18.084166502282443,269.9857063499236,285.93384613349235,0,9.4542580720486,209.4461108084199,11.03250357341252,18.999523544997455,-0.0007229717601831024,0.007774306283803184,0.1292618408129447,0.118289628210177,0.004164529136829771,-0.03845707721881225,-0.5929927390283793,1.0183621001421457,30091575797737.082,0.0,-32073758471.21836,0.4904373240693034,-0.5066357460156674,0.46170714082290965,0.5381616561331948,0.004164529136829771,-0.03845707721881225,-0.5929927390283793
10.8,-92.40600818853417,18.08572959833573,269.99026965137546,285.93829696433806,0,9.46381831028365,209.6723102387163,11.032502432587156,18.99967565504585,-0.0013362775615632736,0.015630960532852844,0.045633014518670544,0.12032713757139354,-0.006133058013801625,0.0785665424904955,-0.8362882629427296,0.9598503576973576,30091575797737.082,0.0,-32073758471.21836,0.5505086489976276,-0.4278949013610086,0.3928752951018298,0.5995791718086193,-0.006133058013801625,0.0785665424904955,-0.8362882629427296
11.0,-92.40613077674789,18.087300904716248,270.0158433915489,285.96258346433484,0,9.48257315403836,210.120742811271,11.032496039152113,19.00052811305163,-0.0006129410685673541,0.00785653190259697,0.1278687008672823,0.09364332087394207,0.0036166824649796103,-0.038872143151279515,0.41117843174306024,0.6036484001234552,30091575797737.082,0.0,-32073758471.21836,0.4947088389188705,-0.5028627484478846,0.4651590760220545,0.5348076803050709,0.0036166824649796103,-0.038872143151279515,0.41117843174306024
11.1,-92.40624238271539,18.08888038677365,270.02031377733726,285.96694053220875,0,9.491600509133468,210.34295602326654,11.032494921555665,19.000677125911242,-0.0011160596750414736,0.015794820574015545,0.04470385788351921,0.07642161654282273,-0.005031186064741213,0.07938288671418603,-0.8316484298376339,0.6344261184176588,30091575797737.082,0.0,-32073758471.21836,0.5567449415208879,-0.4222186202933678,0.39343743259177527,0.5974725879938428,-0.005031186064741213,0.07938288671418603,-0.8316484298376339
11.31,-92.40634295397582,18.090468029677297,270.0443962171112,285.9898130701944,0,9.51012075599029,210.80520245661052,11.032488900945722,19.00147987390371,-0.0004789107639642963,0.007560204303082993,0.11467828463791839,0.09441244489922249,0.0030340424337008324,-0.039212458433011986,0.33321155597332813,0.5694822420800744,30091575797737.082,0.0,-32073758471.21836,0.499631669149283,-0.4982817214510821,0.46771617074622956,0.5322829180739613,0.0030340424337008324,-0.039212458433011986,0.33321155597332813
11.41,-92.40643253831112,18.09206376841704,270.0484300207368,285.9937518592368,0,9.518585572674432,211.0232032194721,11.032487892494816,19.00161433402456,-0.0008958433529926455,0.015957387397449507,0.04033803625588931,0.11503241826489378,-0.004169325890283507,0.08397183094366543,-0.7434024838202934,0.6729077669496858,30091575797737.082,0.0,-32073758471.21836,0.5682553299249271,-0.40836560485315326,0.3860830821003716,0.6010518001809063,-0.004169325890283507,0.08397183094366543,-0.7434024838202934
11.6,-92.40651102374625,18.09366756780397,270.0746404995911,286.01862793639737,0,9.534352622539444,211.43359810560466,11.032481339875101,19.00248801665304,-0.000413081237501215,0.00844104940488193,0.1379498887068194,0.11183140064044017,0.002540853239428588,-0.03955967364509262,0.5137465918470019,0.6966447206394263,30091575797737.082,0.0,-32073758471.21836,0.502314719057739,-0.4961708474893355,0.4724834122459032,0.5274977139970629,0.002540853239428588,-0.03955967364509262,0.5137465918470019
11.7,-92.40657850854912,18.095279402471203,270.0977052665796,286.0405308318775,0,9.542478248138067,211.64757386401845,11.032475573683355,19.003256842219322,-0.0006748480286944438,0.016118346672335863,0.23064766988511648,0.13768930198774232,-0.0026176679119322968,0.07677297267453961,0.9269778117829741,1.103632073579172,30091575797737.082,0.0,-32073758471.21836,0.5062171768599335,-0.49222433291808515,0.4720469639669509,0.5278551313995999,-0.0026176679119322968,0.07677297267453961,0.9269778117829741
11.91,-92.40663504123069,18.096899236874666,270.10410133615255,286.04669115415993,0,9.558521339111604,212.09233335092716,11.032473974665962,19.003470044538417,-0.00026920324556623914,0.007713497159349833,0.030457474156805893,0.15458183876741285,0.0019316418244200142,-0.04002309291898093,-0.9532866463252847,1.0703836642101279,30091575797737.082,0.0,-32073758471.21836,0.548223838570977,-0.4417767549990042,0.42662758731382616,0.5676907814187551,0.0019316418244200142,-0.04002309291898093,-0.9532866463252847
12.0,-92.40668047054494,18.098527035293873,270.12602052432106,286.06750643989363,0,9.565338377177664,212.28102409047852,11.032468494868919,19.004200684144035,-0.0005047701583925531,0.018086649102302673,0.2435465352056734,0.13127709875105972,-0.002617410142514603,0.11525724381058729,2.3676562338763096,1.0748516689540464,-73117503525926.0,0.0,-1527270802654.314,0.51091190528743,-0.4877864103353317,0.47436297945898226,0.5253695905232207,-0.002617410142514603,0.11525724381058729,2.3676562338763096
12.2,-92.406714905489,18.10016276183272,270.1515384486735,286.0917170730643,0,9.57971409712487,212.696166348446,11.032462115387832,19.00505128162245,-0.00017217472027653065,0.008178632694235717,0.12758962176207023,0.13739586214382288,0.0016629771905801178,-0.04954008204033496,-0.579784567218018,1.371539216816571,-73117503525926.0,0.0,-1527270802654.314,0.5102916128880101,-0.48880377622942867,0.4786218913454079,0.5211472184373128,0.0016629771905801178,-0.04954008204033496,-0.579784567218018
12.4,-92.40673835530305,18.101806380420275,270.1555518283917,286.09561840650844,0,9.593123517182995,213.10549604073105,11.032461112042903,19.00518506094639,-0.00011724907025722979,0.008218092937770606,0.020066898591153296,0.14000455339538315,0.0002746282500965028,0.00019730121767444034,-0.5376136158545818,1.6207776471088677,-73117503525926.0,0.0,-1527270802654.314,0.5829547621934357,-0.39681262831097325,0.39119161233711963,0.5913312148754003,0.0002746282500965028,0.00019730121767444034,-0.5376136158545818
12.5,-92.40675069947042,18.103457854811563,270.18168018426684,286.1203996018607,0,9.599786040553841,213.30795839382168,11.032454579953933,19.00605600614223,-0.0001234416737361248,0.01651474391287883,0.26128355875130277,0.11670943406306626,-6.192603478895022e-05,0.08296650975108254,2.4121666016015033,1.233298275904004,-73117503525926.0,0.0,-1527270802654.314,0.5135991044974262,-0.4857779417273658,0.4821604992466478,0.5174524172876084,-6.192603478895022e-05,0.08296650975108254,2.4121666016015033
12.6,-92.40675208771756,18.105117148588374,270.1858053387151,286.1244004011106,0,9.606038736568184,213.50894039868865,11.032453548665321,19.006193511290505,-1.3882471421311542e-05,0.01659293776810961,0.04125154448274785,0.10006817313500438,0.0010955920231481362,0.0007819385523077955,-2.200320142685557,1.2899101330367528,-73117503525926.0,0.0,-1527270802654.314,0.5856686658909792,-0.3960253823058745,0.3956941865128798,0.5861588702074522,0.0010955920231481362,0.0007819385523077955,-2.200320142685557
12.8,-92.40674239001412,18.106784205160082,270.2112993157935,286.1485767067801,0,9.618144713736385,213.90642769994,11.03244717517105,19.00704331052645,4.848851723693289e-05,0.008335282858542525,0.12746988539191695,0.12165518857911468,0.00031185494329122055,-0.0412882745478352,0.4310917045458432,1.2707437221500493,-73117503525926.0,0.0,-1527270802654.314,0.5175540314696845,-0.4820037501291648,0.484815847385694,0.5145520415804313,0.00031185494329122055,-0.0412882745478352,0.4310917045458432
12.9,-92.40672172657278,18.108459027764408,270.2154377412153,286.15258395179495,0,9.623824505824299,214.10291533028746,11.032446140564696,19.00718125804051,0.00020663441333113115,0.016748226043255047,0.04138425421786011,0.1172102687685864,0.001581458960941988,0.08412943184712553,-0.8608563117405715,1.0079552406022327,-73117503525926.0,0.0,-1527270802654.314,0.5899435240095741,-0.39278596918803804,0.3976619340573788,0.5827098824371556,0.001581458960941988,0.08412943184712553,-0.8608563117405715
13.1,-92.40668998784952,18.110141559468275,270.2413070423655,286.1771088221079,0,9.634782973649124,214.491334887058,11.032439673239407,19.00804356807885,0.00015869361632781022,0.008412658519336732,0.12934650575118714,0.11485068419661815,-0.0002397039850166055,-0.04167783761959173,0.43981125766663676,0.7755025616496386,-73117503525926.0,0.0,-1527270802654.314,0.5208163514418814,-0.47891802847735826,0.4880373812999214,0.5110844984188447,-0.0002397039850166055,-0.04167783761959173,0.43981125766663676
13.2,-92.40664720454328,18.111831753168605,270.265205348316,286.19976959985036,0,9.64008225371969,214.6832495504536,11.03243369866292,19.0088401782772,0.0004278330624174502,0.01690193700330417,0.23898305950467688,0.1336625765799767,0.0026913944608964097,0.0848927848396747,1.0963655375349013,1.0340641628206784,-73117503525926.0,0.0,-1527270802654.314,0.5238465901322022,-0.47589665894149813,0.4880953079071905,0.5107544325937553,0.0026913944608964097,0.0848927848396747,1.0963655375349013
13.4,-92.40659348759621,18.113529591593135,270.2715137898406,286.20581692289096,0,9.649684221289045,215.06244600009956,11.032432121552539,19.009050459661353,0.000268584735323428,0.008489192122649269,0.03154220762297638,0.15245739846476083,-0.0007962416354701067,-0.04206372440327429,-1.037204259408497,0.9486372102206271,-73117503525926.0,0.0,-1527270802654.314,0.5700560522652958,-0.4232578493436669,0.4368608499523645,0.5523056110737765,-0.0007962416354701067,-0.04206372440327429,-1.037204259408497
13.51,-92.40652863819356,18.115235037301243,270.2958521994301,286.22888741640685,0,9.654842275225526,215.26835139763472,11.032426036950142,19.009861739981005,0.0005895400240712526,0.015504051891891392,0.2212582689956198,0.13541263907270357,0.0029177753522529664,0.06377145244765599,1.7246914670240399,1.055786074015547,22301106951039.758,0.0,1437374416223.001,0.5269265750602212,-0.47294541451538324,0.491270907381814,0.5072710468225311,0.0029177753522529664,0.06377145244765599,1.7246914670240399
13.7,-92.40645281776361,18.116948032684768,270.32213401130696,286.2537903064474,0,9.663037462910298,215.61953260223407,11.032419466497172,19.010737800376898,0.0003990548945041979,0.009015765176444389,0.13832532566766567,0.11407599982195826,-0.001002553313510817,-0.03414887744972116,-0.436489175410286,0.9279535115674966,-656014424062.6444,0.0,-1376767633621.349,0.5273046490689489,-0.47264066428289997,0.4940233903422431,0.5044814162397334,-0.001002553313510817,-0.03414887744972116,-0.436489175410286
13.8,-92.40636601797767,18.11866854996885,270.32622576143996,286.2577352057008,0,9.666969318359119,215.80207290163648,11.03241844355964,19.010874192047996,0.0008679978593306591,0.017205172840810447,0.04091750132999947,0.11638313128616004,0.004689429648264545,0.08189407664365941,-0.9740782433766482,0.9051251933528842,-678059841192.8683,0.0,-12696250005.929493,0.6037316862249338,-0.38116093890258484,0.40087519352058915,0.574041347746596,0.004689429648264545,0.08189407664365941,-0.9740782433766482
14.0,-92.40626813075008,18.120396561212743,270.35274878755854,286.2828600150146,0,9.674426947852506,216.16237186624852,11.03241181280311,19.011758292918618,0.0004894361379825813,0.008640056219473311,0.13261513059291066,0.0989313796727009,-0.0018928086067403955,-0.04282558310668583,0.4584881463145576,0.6539713945033099,-678059841194.8142,0.0,-12696250005.435062,0.5304141759186636,-0.4695766294177021,0.4969297064457164,0.5012179744791773,-0.0018928086067403955,-0.04282558310668583,0.4584881463145576
14.1,-92.40615928823811,18.12213200831069,270.35681252916726,286.2867723522363,0,9.677768327319374,216.34011451823014,11.032410796867708,19.01189375097224,0.0010884251196330336,0.017354470979462695,0.040637416087179336,0.07918332455955639,0.0059898898165045445,0.08714414759989415,-0.9197771450573166,0.744547091599519,-678059841187.3564,0.0,-12696250005.424732,0.6084021670613533,-0.37703968000810834,0.401427387929035,0.5714402287509206,0.0059898898165045445,0.08714414759989415,-0.9197771450573166
14.3,-92.40603936284197,18.12387484299272,270.38366432756,286.3122017750033,0,9.684045763949957,216.69074666367496,11.03240408391811,19.012788810918664,0.0005996269807440026,0.008714173410151413,0.13425899196363317,0.09897030275889014,-0.0024439906944451416,-0.04320148784655618,0.4681078793822667,0.6613483145022718,-678059841181.085,0.0,-12696250005.911465,0.5333917202415832,-0.4666065363281893,0.4998173450945333,0.4979500322082397,-0.0024439906944451416,-0.04320148784655618,0.4681078793822667
14.41,-92.40590849720468,18.125625056825506,270.3876846258338,286.31606697182355,0,9.687053398557447,216.88081797993723,11.032403078843542,19.012922820861128,0.0011896876117134586,0.015911034843505707,0.03654816612559214,0.12177817689122272,0.005364187554267809,0.06542601303049392,-0.8882802348912866,0.7764787248641464,-22045417116.244724,0.0,1364071383615.6724,0.6132884081219017,-0.37254999310967435,0.40144597644371566,0.5691440582966997,0.005364187554267809,0.06542601303049392,-0.8882802348912866
14.6,-92.40576654421209,18.127382611213232,270.4148603689029,286.34179645886485,0,9.691885330512319,217.20444565163936,11.032396284907774,19.01382867896343,0.000747121013645078,0.009250286251191609,0.14303022667951718,0.11939391162489248,-0.00232929788457043,-0.03505657153849535,0.5604318976522384,0.807147050031056,-22045417116.244724,0.0,1364071383615.6724,0.536298853124709,-0.46366994608456263,0.5026292195622168,0.49472981401704225,-0.00232929788457043,-0.03505657153849535,0.5604318976522384
14.7,-92.40561358699274,18.129147447398417,270.4394904035122,286.3651189989268,0,9.694243603590284,217.37238167213866,11.032390127399122,19.014649680117074,0.0015295721934194316,0.017648361851847545,0.2463003460928812,0.1400387061721179,0.007824511797743563,0.08398075600655966,1.032701194133644,1.1256461251771448,-22045417116.244724,0.0,1364071383615.6724,0.5395083397570354,-0.460464816008311,0.5020991791453696,0.4947719867298325,0.007824511797743563,0.08398075600655966,1.032701194133644
14.9,-92.40544970891793,18.130919546462792,270.44569627825086,286.37103906459464,0,9.697932466868796,217.70326335739577,11.032388575930437,19.014856542608364,0.0008193903740760745,0.008860495321876225,0.031029373693342965,0.1578729611534381,-0.0035509090967167666,-0.04393933264985637,-1.0763548619976855,1.0562264869061058,-22045417116.244724,0.0,1364071383615.6724,0.590154039888742,-0.40547516413403095,0.4447023281129486,0.5380965896977986,-0.0035509090967167666,-0.04393933264985637,-1.0763548619976855
15.0,-92.40527476360145,18.13269884932814,270.46940564356566,286.39348624031373,0,9.699684029643766,217.86619431635535,11.032382648589108,19.015646854785523,0.001749453164734411,0.017793028653478933,0.23709365314800918,0.13645831937280006,0.009300627906583397,0.0893253333160274,2.0606427945466694,1.1393395968209863,-22045417116.244724,0.0,1364071383615.6724,0.5432318124072049,-0.456703541085325,0.5038099602410978,0.49243943537329715,0.009300627906583397,0.0893253333160274,2.0606427945466694
15.2,-92.40508881489964,18.13448532675717,270.49515315177433,286.41785537140964,0,9.70237181946891,218.1870002605127,11.032376211712055,19.016505105059146,0.0009297435090616123,0.008932387145144136,0.128737541043336,0.11343754908620549,-0.004098548278364008,-0.04430320754167414,-0.5417805605233678,1.0325855536179025,-22045417116.244724,0.0,1364071383615.6724,0.5432131700485316,-0.4566417648789697,0.506639118854587,0.4896065294706478,-0.004098548278364008,-0.04430320754167414,-0.5417805605233678
15.3,-92.40489195691129,18.136278949354377,270.49829805707833,286.42087550224625,0,9.703318871113735,218.34486098772135,11.03237542548573,19.016609935235945,0.001968579883566662,0.017936225972085853,0.03144905303997758,0.11399619478597692,0.010388363745050349,0.09003838826941589,-0.9728848800335704,1.0210465171770018,-22045417116.244724,0.0,1364071383615.6724,0.6444086742829599,-0.33449134798999225,0.37321186385416044,0.5775516455757178,0.010388363745050349,0.09003838826941589,-0.9728848800335704
15.5,-92.40468406397747,18.13807965756691,270.5246022155759,286.44576445554804,0,9.704813550534473,218.65546287267864,11.032368849446106,19.017486740519196,0.0010394646690770097,0.009003541062657692,0.13152079248783413,0.09250145951203659,-0.004645576072448278,-0.044663424547140965,0.5003586972392845,0.7089326685631478,-22045417116.244724,0.0,1364071383615.6724,0.5457385845221705,-0.45399533028344263,0.509424989369646,0.4863577054497048,-0.004645576072448278,-0.044663424547140965,0.5003586972392845
15.6,-92.40446525068154,18.139887431685448,270.5275997852747,286.44863930533927,0,9.705159438312679,218.80819022595023,11.03236810005368,19.017586659509156,0.0021881329593043198,0.018077741185393913,0.029975696987776353,0.07293073912531385,0.011486682902273141,0.09074200122736253,-1.0154509550005812,0.7891209486773366,-22045417116.244724,0.0,1364071383615.6724,0.6522538380663268,-0.32520556740891143,0.36694209267288963,0.5780655415079111,0.011486682902273141,0.09074200122736253,-1.0154509550005812
15.8,-92.40423536184896,18.141702191845077,270.55359412610414,286.47322975415744,0,9.705451234258522,219.1084638150948,11.032361601468473,19.018453137536806,0.001149444162891194,0.009073800798144967,0.12997170414735068,0.09369955382398165,-0.005193443982065601,-0.045019701936244494,0.499980035797869,0.7133148570672221,-22045417116.244724,0.0,1364071383615.6724,0.5487925143358862,-0.4508189983636118,0.5115302895669611,0.483658732763988,-0.005193443982065601,-0.045019701936244494,0.499980035797869
15.91,-92.40399460254723,18.14352395802615,270.5564922999282,286.4760045898507,0,9.70515674847293,219.2706541433393,11.032360876925017,19.01854974333094,0.002188720924839976,0.016561510737034355,0.026347034764223252,0.11371286429527105,0.009447970563170796,0.06807009035354025,-0.9420424489375269,0.7797489837059164,-22045417116.244724,0.0,1364071383615.6724,0.6589128138747241,-0.3176683121891338,0.36241253806302864,0.5775620307787848,0.009447970563170796,0.06807009035354025,-0.9420424489375269
16.1,-92.40374278808582,18.145352640055208,270.5830475705572,286.50111890924455,0,9.704293744548353,219.54582189342418,11.032354238107361,19.019434919018572,0.001325339270564239,0.009624642258194406,0.13976458225783878,0.11135371399205589,-0.004544113969872271,-0.03650983409915738,0.5969344604927093,0.7971962251401643,-22045417116.244724,0.0,1364071383615.6724,0.5511853087416321,-0.4482462146094452,0.5142008033196701,0.4804868576570029,-0.004544113969872271,-0.03650983409915738,0.5969344604927093
16.21,-92.40347998401593,18.147188217605823,270.60848900375976,286.5251784298539,0,9.703565010561551,219.70223234012272,11.032347877749059,19.02028296679199,0.0023891279080988873,0.01668706864195592,0.23128575638690105,0.13663357421206584,0.00967080579576958,0.06420387621601407,0.8320106739005704,1.1669223010334533,-22045417116.244724,0.0,1364071383615.6724,0.55333571919109,-0.44606143207762927,0.514473692541313,0.47975577157866506,0.00967080579576958,0.06420387621601407,0.8320106739005704
16.4,-92.40320634613047,18.149030670199526,270.6125003672751,286.5289954129283,0,9.701337766311099,219.96736217026677,11.03234687490818,19.02041667890917,0.001440199397139089,0.00969711891422569,0.021112439554527854,0.15605076001995027,-0.004994360583998998,-0.03678920909331743,-1.1061753517493458,1.1003093063151743,-22045417116.244724,0.0,1364071383615.6724,0.6383443871831903,-0.35135714521265676,0.4073940284523216,0.5505403758500537,-0.004994360583998998,-0.03678920909331743,-1.1061753517493458
16.5,-92.40292165046394,18.15087989720667,270.63810133082444,286.55319970738105,0,9.700111070216082,220.1043312027646,11.032340474667294,19.021270044360815,0.002846956665365456,0.01849227007145489,0.25600963549322475,0.13521589658269356,0.014067572682263472,0.08795151157229074,2.348971959386936,1.201875258470853,-22045417116.244724,0.0,1364071383615.6724,0.5559094882427973,-0.44329460155105205,0.5167641976343056,0.47687451301227807,0.014067572682263472,0.08795151157229074,2.348971959386936
16.71,-92.40262600329218,18.15273590784733,270.6649750661221,286.57860325011853,0,9.69661737315813,220.3861572640814,11.032333756233468,19.022165835537404,0.0014078436750185603,0.008838145907896213,0.12797016808414238,0.11427935972670547,-0.006852919001651857,-0.045972019826469694,-0.6097117495670564,1.128733403597685,-22045417116.244724,0.0,1364071383615.6724,0.5563379052351586,-0.44269109334668955,0.5187893380657629,0.47473187567231684,-0.006852919001651857,-0.045972019826469694,-0.6097117495670564
16.8,-92.40231954113239,18.154598671192225,270.66760024688773,286.5811018418741,0,9.69476240686503,220.5045198979427,11.032333099938278,19.022253341562923,0.0034051351088730123,0.0206973704988419,0.029168675173549617,0.11609937604480788,0.02219212704282728,0.13176916212161896,-1.0977943656732545,1.1097930227979191,-22045417116.244724,0.0,1364071383615.6724,0.6784074543074728,-0.29521561672955976,0.34775315202781354,0.5759156282249686,0.02219212704282728,0.13176916212161896,-1.0977943656732545
17.01,-92.40200204074287,18.156468106163594,270.69424834885643,286.6062864006649,0,9.690013423783132,220.775021494724,11.032326437912786,19.023141611628546,0.0015119066167320185,0.008902071292230335,0.1268957236604923,0.09300936705392035,-0.009015373772099934,-0.05616809146005485,0.46536689755686794,0.7607671937552283,-22045417116.244724,0.0,1364071383615.6724,0.5590845584008202,-0.43973481930754954,0.520715284792352,0.472136990109795,-0.009015373772099934,-0.05616809146005485,0.46536689755686794
17.11,-92.40167372912288,18.15834422153612,270.6968666497905,286.6087723479962,0,9.687343775459846,220.90102607307088,11.032325783337551,19.02322888832635,0.0032831161999525437,0.018761153725251178,0.02618300934045748,0.07298397595073468,0.017712095832205628,0.09859082433021053,-1.0071271432003697,0.854891176940163,-22045417116.244724,0.0,1364071383615.6724,0.6822812054829581,-0.29187799576865664,0.34739075914001893,0.5732532186520324,0.017712095832205628,0.09859082433021053,-1.0071271432003697
17.3,-92.4013343735126,18.160226915937827,270.7236344294899,286.63406405093605,0,9.681944023696332,221.13542212361364,11.032319091392628,19.024121147649666,0.0017860821593647918,0.00990891790372547,0.14088305104953658,0.09418534064136624,-0.007879126529409168,-0.046590714850134995,0.6036844300477807,0.7597241105122121,-22045417116.244724,0.0,1364071383615.6724,0.561543135290022,-0.4370263869392736,0.522843137618744,0.46937436846556024,-0.007879126529409168,-0.046590714850134995,0.6036844300477807
17.41,-92.40098425139279,18.162116207850993,270.7260634698026,286.6363650998059,0,9.67836121181027,221.26811091169353,11.03231848413255,19.02420211566009,0.003182928361928316,0.01717538102878092,0.02208218466121677,0.1197142861955232,0.01269860184148665,0.06605875568232261,-1.0800078762574583,0.8918183467080876,-22045417116.244724,0.0,1364071383615.6724,0.6920373896867212,-0.27858175906684957,0.3349516311690368,0.5755726362224064,0.01269860184148665,0.06605875568232261,-1.0800078762574583
17.6,-92.40062308048476,18.164011995613077,270.75296185463577,286.6617742750094,0,9.671838252821594,221.49206935496062,11.032311759536341,19.02509872848786,0.0019008995159041486,0.00997783032675894,0.14157044649024053,0.11783285735816759,-0.0067475202422324155,-0.03788184580011542,0.628885588573805,0.9229155303727061,-22045417116.244724,0.0,1364071383615.6724,0.5639375941342856,-0.4343625140722065,0.5249262461759754,0.46664336743010204,-0.0067475202422324155,-0.03788184580011542,0.628885588573805
17.7,-92.40025100875019,18.16591426741763,270.778374169965,286.685777020383,0,9.66823268727574,221.6072705583609,11.032305406457509,19.0259458056655,0.0037207173457432757,0.0190227180455342,0.2541231532922038,0.13394385401462158,0.01819817829839166,0.09044887718775452,1.1255270680196567,1.166244264709583,-22045417116.244724,0.0,1364071383615.6724,0.5662616062350878,-0.4320269525531895,0.5247149706745445,0.4662346030934151,0.01819817829839166,0.09044887718775452,1.1255270680196567
17.9,-92.3998682243909,18.16782301131522,270.7825354038452,286.68970494349804,0,9.6599671980035,221.83212031178587,11.032304366149038,19.026084513461505,0.0019139217964436806,0.00954371948795444,0.02080616940105536,0.155672407860751,-0.009033977746498008,-0.047394992787898965,-1.1665849194557463,1.0393005681497427,16.123381418516935,0.0,-0.19411951364254776,0.6526290565032635,-0.34019965269961705,0.41519768282299496,0.534743298311569,-0.009033977746498008,-0.047394992787898965,-1.1665849194557463
18.01,-92.39947436584865,18.169738105214346,270.80685464642,286.7126693562467,0,9.655308430259389,221.95262027996372,11.032298286338394,19.026895154880666,0.0035805322023013206,0.017409944537501828,0.22108402340718197,0.1344777237403178,0.015151003689614499,0.07151113681406522,1.8207077636920106,1.126787524253745,4.93675183679899,0.0,0.19500953124401404,0.5695886763023581,-0.4285328097517383,0.5256337221921672,0.4643679154386267,0.015151003689614499,0.07151113681406522,1.8207077636920106
18.2,-92.39906966180506,18.171659566882376,270.83277208993167,286.7371404678833,0,9.64654597866023,222.15543897824057,11.032291806977517,19.02775906966439,0.0021300212820488506,0.010112956147523399,0.1364075974298614,0.108820582638404,-0.007634268001328881,-0.0384052020525185,-0.44566539988063997,0.9975435315275327,4.93675183679899,0.0,0.19500953124401404,0.5694777093258433,-0.42834610652297256,0.5279637116534883,0.46202713208714596,-0.007634268001328881,-0.0384052020525185,-0.44566539988063997
18.3,-92.39865425118131,18.17358737394648,270.8357792287307,286.7399691286542,0,9.641546575953903,222.25947103435806,11.032291055192816,19.027859307624357,0.0041541062374505465,0.01927807064102866,0.030071387990346494,0.11134190905339718,0.02024084955401667,0.09165114493505129,-1.0633620943951338,0.9584348053604558,4.93675183679899,0.0,0.19500953124401404,0.6845717845306948,-0.29852983913456177,0.3697102946095717,0.5527709335976851,0.02024084955401667,0.09165114493505129,-1.0633620943951338
18.5,-92.39822783313802,18.175521413894554,270.8610167592846,286.7637921447631,0,9.631160573543445,222.46189603116898,11.032284745810179,19.02870055864282,0.002132090216449008,0.009670199740377007,0.12618765276954536,0.09371337552559586,-0.010110080105007727,-0.04803935450325843,0.48058132389599606,0.6982541162678875,4.93675183679899,0.0,0.19500953124401404,0.5723607276593439,-0.42523569723692267,0.5292049216528202,0.45991298103785583,-0.010110080105007727,-0.04803935450325843,0.48058132389599606
18.6,-92.39779073707503,18.177461724076185,270.86396658018765,286.76656053203897,0,9.625582231959704,222.56027997522926,11.032284008354953,19.028798886006257,0.004370960629955727,0.019403101816308502,0.029498209030407032,0.07761262521871268,0.022388704135066866,0.09732902075931357,-0.9668944373913695,0.7713920848882598,4.93675183679899,0.0,0.19500953124401404,0.6895055620342929,-0.2932771601197144,0.3666934672834335,0.5514585100690195,0.022388704135066866,0.09732902075931357,-0.9668944373913695
18.8,-92.39734262263111,18.179408181703554,270.8906227921698,286.7917176668296,0,9.614058616464888,222.75136889183602,11.032277344301956,19.02968742640566,0.002240572219562872,0.009732288136845603,0.13328105991064423,0.11314525091522007,-0.01065194205196431,-0.04835406839731467,0.5189142544011879,0.7189891466453975,4.93675183679899,0.0,0.19500953124401404,0.5735497129545319,-0.42358313243797874,0.53218099485812,0.4565100715160899,-0.01065194205196431,-0.04835406839731467,0.5189142544011879
18.9,-92.39688387968388,18.1813608538524,270.89588279810465,286.7966620275387,0,9.607930057710307,222.8440653715732,11.032276029300473,19.029862759936822,0.004587429472309266,0.019526721488461324,0.05260005934872082,0.17462967384315753,0.02346857252746444,0.09794433351615929,-0.8068100056192513,1.0631201467692226,4.93675183679899,0.0,0.19500953124401404,0.6454654895668561,-0.3523052760797394,0.4446643930758687,0.5113989360128419,0.02346857252746444,0.09794433351615929,-0.8068100056192513
19.1,-92.39641421834952,18.183319607462956,270.9385601030191,286.83694640518894,0,9.595425463610212,223.02374177495693,11.032265359974245,19.031285336767304,0.002348306671819922,0.009793768052776958,0.2133865245721692,0.2426184538936707,-0.011195614002446562,-0.04866476717842114,0.8039323261172304,0.9277206409653054,4.93675183679899,0.0,0.19500953124401404,0.5681779239554935,-0.4273993449060178,0.541993688239191,0.44804741781692153,-0.011195614002446562,-0.04866476717842114,0.8039323261172304
19.2,-92.39593373898252,18.18528439934092,270.981912714101,286.8778662747895,0,9.589110074511659,223.11071371301512,11.032254521821475,19.032730423803365,0.004804793669990306,0.01964791877963321,0.4335261108190117,0.2985747044954088,0.024564869981704367,0.09854150726856462,2.201395862468472,0.9013068179903347,4.93675183679899,0.0,0.19500953124401404,0.5690390860747372,-0.42629804627532686,0.5431086388201396,0.446651430871997,0.024564869981704367,0.09854150726856462,2.201395862468472
19.4,-92.39544276217553,18.18725541615839,271.05698944070764,286.94875087278376,0,9.575799922451477,223.27890573501014,11.032235752639822,19.03523298135692,0.002454884034932556,0.009855084087355727,0.3753836330332674,0.34874799219188046,-0.011749548175288792,-0.04896417346138759,-0.2907123889287227,0.8451201192054224,4.93675183679899,0.0,0.19500953124401404,0.5646447951733391,-0.42947047951400225,0.5495746049674032,0.44124722784918846,-0.011749548175288792,-0.04896417346138759,-0.2907123889287227
19.5,-92.39494078875909,18.189232304454816,271.0982826943736,286.98772122692327,0,9.568902256951475,223.36011834377368,11.032225429326406,19.036609423145787,0.0050197341644774695,0.019768882964256992,0.41293253665969,0.33755029115285573,0.02564850129544877,0.09913798876901124,0.3754890362642207,0.9861340405234728,4.93675183679899,0.0,0.19500953124401404,0.5717485882997708,-0.4232898577306656,0.5442048820030835,0.4447137219870578,0.02564850129544877,0.09913798876901124,0.3754890362642207
19.7,-92.39442831980132,18.19121529063797,271.1596807888186,287.0456813536606,0,9.554338420270977,223.5167587098137,11.032210079802795,19.038656026293953,0.002562344788827895,0.009914930915773147,0.30699047222498277,0.32155459139069775,-0.012286946878247915,-0.0492697602424194,-0.529710322173538,0.7432318666412969,4.93675183679899,0.0,0.19500953124401404,0.5683076200479122,-0.42567294774710557,0.5496659614516101,0.4401094424949829,-0.012286946878247915,-0.0492697602424194,-0.529710322173538
19.8,-92.39390473660781,18.193203900984905,271.1753096399552,287.06040280572614,0,9.54662900696317,223.59217950532195,11.03220617259001,19.03917698799851,0.00523583193512415,0.019886103469346213,0.15628851136568533,0.3107005690331648,0.026734871462962165,0.09971172553572924,-1.507019608592953,0.7539767117530676,4.93675183679899,0.0,0.19500953124401404,0.5954578435803282,-0.4025386332077077,0.5222420827933713,0.45897256154761323,0.026734871462962165,0.09971172553572924,-1.507019608592953
20.0,-92.39337067072125,18.19519856164291,271.2460833658961,287.1272155960378,0,9.531055687310324,223.73720556134907,11.032188479158526,19.041536112196535,0.002670329432774575,0.0099733032900318,0.3538686297045514,0.3117261039740554,-0.012827512511747921,-0.049564000896572244,0.9879005916943339,0.774532391208497,4.93675183679899,0.0,0.19500953124401404,0.569065975398437,-0.4241878860518129,0.5527048538763035,0.4367446593517699,-0.012827512511747921,-0.049564000896572244,0.9879005916943339
20.1,-92.39282586392129,18.197198908630494,271.2781414869612,287.15745222414284,0,9.522962541520014,223.80680437628936,11.03218046462826,19.042604716232038,0.005448067999651507,0.02000346987582418,0.32058121065119394,0.33412309628838804,0.02777738566876893,0.10030166585792237,-0.33287419053357,0.6890910766825368,4.93675183679899,0.0,0.19500953124401404,0.5797151414990425,-0.41522260843139347,0.5434357405655051,0.4429425877472109,0.02777738566876893,0.10030166585792237,-0.33287419053357
20.3,-92.39227033822415,18.199205097838334,271.36182832568534,287.236461050305,0,9.506429765559973,223.94015811381485,11.032159542918578,19.045394277522846,0.0027776284856884203,0.01003094603920122,0.41843419362067075,0.3953514899638806,-0.013352197569815483,-0.04986261918311498,0.48926491484738577,0.4684305790247841,4.93675183679899,0.0,0.19500953124401404,0.5697295012660688,-0.4227603854192933,0.5557338974514809,0.4334071839859535,-0.013352197569815483,-0.04986261918311498,0.48926491484738577
20.4,-92.39170411588246,18.20121690503027,271.40369080682416,287.2759556068467,0,9.497894209975001,224.00390710958922,11.032149077298294,19.046789693560804,0.005662223416891386,0.02011807191937763,0.4186248113882219,0.41473307388624303,0.028845949312030272,0.10087125880176627,0.0019061776755114185,0.28628466092395555,4.93675183679899,0.0,0.19500953124401404,0.577558468351525,-0.41614983936732497,0.5494433819788699,0.43744427854254986,0.028845949312030272,0.10087125880176627,0.0019061776755114185
20.51,-92.39112687938494,18.203234425844258,271.4546631573614,287.32405436976796,0,9.488348336249008,224.0717720395872,11.032136334210659,19.048488771912044,0.005247604522909509,0.018341098308964007,0.4633850048838252,0.4059861894917266,-0.0037692626725624127,-0.01615430554921432,0.4069108499600193,0.39000825416014334,827378578548.1161,0.0,-475458004938.8317,0.5760910034175493,-0.4168652235245267,0.5528619856357165,0.4343802090751146,-0.0037692626725624127,-0.01615430554921432,0.4069108499600193
20.7,-92.39053938145616,18.205257615793375,271.54031340651494,287.4049146708562,0,9.471331260063305,224.1834088667562,11.03211492164837,19.051343780217167,0.0030920943619830374,0.010648368153248601,0.45079078501873876,0.530332895318978,-0.011344790320665777,-0.0404880534511342,-0.06628536771098219,1.8172921729707003,827378578548.1161,0.0,-475458004938.8317,0.5723438325679251,-0.41934607878217695,0.5584388458078268,0.42978769063840505,-0.011344790320665777,-0.0404880534511342,-0.06628536771098219
20.9,-92.38994104505619,18.207286280266764,271.5957763857436,287.45725287523254,0,9.452386930748661,224.29326263823438,11.032101055903563,19.053192546191454,0.002991681999873219,0.010143322366946742,0.27731489614325355,0.5173411510139355,-0.0005020618105490942,-0.0025252289315093068,-0.8673794443774291,3.1693757904183983,827378578548.1161,0.0,-475458004938.8317,0.5770139239119891,-0.4152650115312564,0.5554291051527979,0.43140284069393553,-0.0005020618105490942,-0.0025252289315093068,-0.8673794443774291
21.0,-92.38933197338042,18.209320424530674,271.6997844287526,287.5554570364495,0,9.443416577585273,224.3452378494807,11.032075053892811,19.05665948095842,0.006090716757682826,0.020341442639093255,1.0400804300900142,0.48928972580699026,0.03099034757809563,0.10198120272146369,7.6276553394674975,3.1199396564338846,827378578548.1161,0.0,-475458004938.8317,0.5729545436694817,-0.4179120525479134,0.5613767988080325,0.42653100354339063,0.03099034757809563,0.10198120272146369,7.6276553394674975
21.1,-92.38871243985913,18.211360063729373,271.7351389714996,287.5887925033345,0,9.433587048984613,224.39524216856668,11.032066215257124,19.057837965716654,0.006195335212879538,0.020396391986991766,0.3535454274702892,0.43654793554676735,0.001046184551967112,0.0005494934789850988,-6.865350026197152,3.379809017794256,827378578548.1161,0.0,-475458004938.8317,0.5848741577152891,-0.40824999877319257,0.5506721018540972,0.4336062665346412,0.001046184551967112,0.0005494934789850988,-6.865350026197152
21.3,-92.38808231815737,18.213405232886192,271.7998076522006,287.64982413409746,0,9.413353756789146,224.4893293283274,11.03205004808695,19.059993588406687,0.0031506085088040094,0.010225845784095392,0.32334340350502205,0.4897793113004454,-0.0152236335203777,-0.05085273101448205,-0.15101011982633636,3.564077216389097,827378578548.1161,0.0,-475458004938.8317,0.5781990788912217,-0.41298315099198696,0.5593816099066584,0.4268758094156983,-0.0152236335203777,-0.05085273101448205,-0.15101011982633636
21.4,-92.38744157217448,18.215455696904513,271.81840581133497,287.6673216135497,0,9.402844921386642,224.53340798736608,11.032045398547165,19.0606135270445,0.006407459828921128,0.020504640183212512,0.18598159134342437,0.33766702342071586,0.03256851320117188,0.1027879439911734,-1.3736181216160062,2.3024373921129113,827378578548.1161,0.0,-475458004938.8317,0.6015053856009953,-0.3940857150209209,0.5360258145162128,0.4422262390244141,0.03256851320117188,0.1027879439911734,-1.3736181216160062
21.6,-92.38679016604391,18.217511560568727,271.9271190916509,287.769968589721,0,9.382038112473875,224.61562566862588,11.032018220227087,19.06423730305503,0.0032570306528611572,0.010279318321071283,0.5435664015797592,0.6097933899433848,-0.01575214588029963,-0.051126609310705416,1.7879240511816488,3.7997610022693715,-1705035421192.5088,0.0,439634808806.7731,0.5761677932999754,-0.413552979624531,0.564851442530896,0.42183818565686426,-0.01575214588029963,-0.051126609310705416,1.7879240511816488
21.8,-92.38612822413285,18.219572648545267,271.9830243381707,287.82271460723786,0,9.360038138624455,224.68991180060564,11.032004243915457,19.066100811272356,0.0033097095553103035,0.010305439882696313,0.2795262325989266,0.7746132548087247,0.0002633945122457321,0.0001306078081251502,-1.3202008449041678,4.79908628204527,1378698202757.9727,0.0,889076303421.9625,0.582302197694468,-0.408460438626857,0.5601905580213695,0.4245830417487902,0.0002633945122457321,0.0001306078081251502,-1.3202008449041678
21.9,-92.38545583104194,18.2216391453836,272.1544924981951,287.9846668994794,0,9.350226709833542,224.72407635352403,11.03196137687545,19.071816416606502,0.006723930909089547,0.020664968383350853,1.7146816002440712,1.0431193903324174,0.03414221353779316,0.1035952850065476,14.35155367645175,4.905882068849985,2124349825934.6067,0.0,440299608456.4105,0.5757614790454864,-0.4128671160623877,0.5685106879677202,0.4181328274461958,0.03414221353779316,0.1035952850065476,14.35155367645175
22.01,-92.3847726116049,18.22371067551723,272.2807118213085,288.10386299250024,0,9.338622115317586,224.75936147849427,11.031929822044672,19.07602372737695,0.006211085791236983,0.018832092123878662,1.147448391939871,1.2940509934535325,-0.004662228344114093,-0.016662511449746738,-5.156665530038044,5.085564890776756,1062174912967.3082,0.0,220149804227.89444,0.577907730970112,-0.41076602537903534,0.5680067699544823,0.4179261132845878,-0.004662228344114093,-0.016662511449746738,-5.156665530038044
22.21,-92.38407902088828,18.22578734326466,272.58665375938295,288.3929284648938,0,9.317787581159998,224.81734819391818,11.031853336560154,19.086221791979433,0.003467953583111706,0.010383338737156614,1.529709690372277,1.6817022772428056,-0.013715661040626435,-0.04224376693361039,1.9113064921620373,5.26351701454366,0.037092312205180944,0.0,-0.5378621282153625,0.5758066724079212,-0.41180114161083786,0.5717007324544472,0.4147586868162935,-0.013715661040626435,-0.04224376693361039,1.9113064921620373
22.31,-92.38337490419106,18.227869152830486,272.7664734665825,288.56280463694014,0,9.307399413942523,224.84335436165958,11.031808381633354,19.092215782219416,0.007041166972214946,0.020818095658264202,1.7981970719955982,1.841206411371354,0.03573213389103317,0.1043475692110781,2.684873816233268,2.6874777108542465,0.15128839713464087,0.0,-0.5352145187430257,0.5780418898339257,-0.4096648241403162,0.5710205383156176,0.4147021223493434,0.03573213389103317,0.1043475692110781,2.684873816233268
22.5,-92.38266017704434,18.22995595830633,273.18788619936754,288.9610845108864,0,9.288025255769519,224.88727439718247,11.031703028450158,19.106262873312254,0.003761721824814301,0.010983186714970977,2.217961751500139,2.109923507380068,-0.017260237617898015,-0.05176267864891136,2.2092877868659886,1.6980953367549383,0.23072045934695148,0.0,-0.43053165597148213,0.5768341855184325,-0.41001259008978,0.573822753380999,0.4121643435419978,-0.017260237617898015,-0.05176267864891136,2.2092877868659886
22.7,-92.38193478521102,18.232047723671894,273.69034931649816,289.4360667709607,0,9.267613398223489,224.92572553980804,11.031577412670876,19.123011643883274,0.003626959166638257,0.010458826827814996,2.512315585653093,2.441494492983289,-0.000673813290880223,-0.0026217994357799136,1.471769170764777,2.8632846791260227,0.09119748178298695,0.0,-0.23172689363938578,0.5773847210157805,-0.40908277014683947,0.5748462305846375,0.41088925793837827,-0.000673813290880223,-0.0026217994357799136,1.471769170764777
22.81,-92.38119903468538,18.234144572795948,273.9643728790383,289.6950941427771,0,9.256101927167604,224.94346972623535,11.03150890678024,19.132145762634607,0.006688641142137543,0.019062264764131923,2.491123295819568,2.6761826818717305,0.027833472504539113,0.0782130721483361,-0.19265718030477627,2.54204077072947,204639334032.5146,0.0,205972258036.09686,0.579199322321402,-0.40727213983021743,0.5745213698845274,0.4105882909759491,0.027833472504539113,0.0782130721483361,-0.19265718030477627
22.9,-92.38045281169283,18.23624634943737,274.25124855035875,289.96630161803535,0,9.24717363829193,224.9561900051043,11.03143718786241,19.14170828501196,0.00829136658385072,0.02335307379356762,3.187507459116058,2.5361270568979846,0.01780806046347976,0.04767565588261893,7.737601814405459,3.554127260307002,409278668064.97314,0.0,411944516072.3292,0.5798614031679924,-0.40627738958876425,0.5753707905158306,0.4094482742009966,0.01780806046347976,0.04767565588261893,7.737601814405459
23.1,-92.37969592268946,18.238352927246147,274.84559879614056,290.5283960542866,0,9.226466544080347,224.97866237724656,11.031288600300964,19.161519959871352,0.0037844450168477723,0.010532889043890343,2.971751228909014,3.2428128725477476,-0.022534607835014413,-0.06410092374838547,-1.0787811510352043,12.315910334819439,221504819508.868,0.0,822228662419.4039,0.57947693753563,-0.4060088802716121,0.577298636629635,0.4075408594858728,-0.022534607835014413,-0.06410092374838547,-1.0787811510352043
23.3,-92.37892854436174,18.240464389764426,275.1491332843781,290.8154509775968,0,9.20226010777742,224.99313866120556,11.031212716678905,19.171637776145936,0.0038368916386133513,0.010557312591394957,1.5176724411875906,3.301104317386131,0.0002622331088278957,0.0001221177375230688,-7.270393938607144,15.537060710542955,221504819508.868,0.0,822228662419.4039,0.581271188737559,-0.4042126192818667,0.5769848802686047,0.4072154362230654,0.0002622331088278957,0.0001221177375230688,-7.270393938607144
23.4,-92.3781508436261,18.242580680427487,275.7537059853818,291.38740684498026,0,9.19446664599207,224.9973774103485,11.031061573503655,19.191790199512727,0.007777007356395581,0.021162906630607832,6.045727010037596,3.112322031650474,0.039401157177823144,0.10605594039213101,45.28054568850102,15.067871539846081,221504819508.868,0.0,822228662419.4039,0.5809358019200135,-0.4039266910243056,0.578773329145041,0.40543588370551487,0.039401157177823144,0.10605594039213101,45.28054568850102
23.6,-92.3773624776286,18.24470161256483,276.31023387178107,291.9140140136014,0,9.171923870258162,224.99985518102872,11.030922441532054,19.210341129059366,0.0039418299875392795,0.010604660686705918,2.7826394319961483,3.080052017917901,-0.019175886844281235,-0.05279122971950882,-16.315437890207008,15.98519255063383,221504819508.868,0.0,822228662419.4039,0.5817857052073112,-0.4027824190732844,0.5794251074522312,0.40442336845918664,-0.019175886844281235,-0.05279122971950882,-16.315437890207008
23.7,-92.37656411374454,18.246827209401165,276.53459161852595,292.12626835376415,0,9.159901392705136,224.9980940924433,11.030866352095368,19.21781972061753,0.007983638840585342,0.02125596836336331,2.2435774674489064,3.311851500939558,0.040418088530461485,0.10651307676657618,-5.390619645472533,14.66523815831728,221504819508.868,0.0,822228662419.4039,0.5842281165483654,-0.400570390072341,0.5783454312105697,0.4046448228131708,0.040418088530461485,0.10651307676657618,-5.390619645472533
23.8,-92.37575524957805,18.24895767405746,276.81562460289035,292.39219318991366,0,9.148306213142776,224.99433309597197,11.030796093849277,19.22718748676301,0.008088641664869441,0.021304646562967076,2.8103298436439728,2.64240940744103,0.0010500282428409769,0.00048678199603766764,5.667523761950583,5.658363710063313,221504819508.868,0.0,822228662419.4039,0.5843653006756659,-0.3999452952786184,0.5796459981439226,0.4032015289981835,0.0010500282428409769,0.00048678199603766764,5.667523761950583
24.0,-92.37493616296175,18.25109256955195,277.3509620044733,292.8989370685739,0,9.124435981147034,224.98081213686774,11.03066225949888,19.245032066815778,0.004095433081516845,0.01067447747244547,2.676687007914618,2.7626810232805417,-0.01996604291676305,-0.05315084545260822,-0.6682141786467756,3.0808920568937395,221504819508.868,0.0,822228662419.4039,0.5839537841938122,-0.3997036276954059,0.581464820942692,0.40141456119446156,-0.01996604291676305,-0.05315084545260822,-0.6682141786467756
24.1,-92.37410663195634,18.253232228801217,277.6208081052008,293.1543435732026,0,9.11231926788499,224.9710527751641,11.0305947979737,19.254026936840027,0.008295310054080456,0.021396592492663707,2.698461007275303,2.860745190088047,0.04199876972563551,0.10722115020218086,0.21773999360684607,3.30290487979374,221504819508.868,0.0,822228662419.4039,0.5858872454581614,-0.39783554978313157,0.5809259097947481,0.4012332217892056,0.04199876972563551,0.10722115020218086,0.21773999360684607
24.3,-92.37326613485014,18.255376264621194,278.29760828932797,293.795231136489,0,9.089057586037809,224.94553845617358,11.030425597927668,19.2765869429776,0.004202485530981918,0.01072017909988791,3.384000920635811,2.9586722303730992,-0.020464122615492762,-0.05338206696387918,3.427699566802552,2.7356386648265656,221504819508.868,0.0,822228662419.4039,0.5851535290810953,-0.39776409876191243,0.5831658604492659,0.3991198420857206,-0.020464122615492762,-0.05338206696387918,3.427699566802552
24.4,-92.37241596015879,18.257524939728206,278.57099984343995,294.0540807419873,0,9.07657999510314,224.9297846328522,11.03035725003914,19.285699994781332,0.008501746913509758,0.02148675107012156,2.7339155411198717,3.0448162762190605,0.04299261382527932,0.10766571970233879,-6.500853795159532,2.9522674316773823,221504819508.868,0.0,822228662419.4039,0.5872567161584662,-0.39583375324172404,0.5823140861189557,0.3991935548437499,0.04299261382527932,0.10766571970233879,-6.500853795159532
24.6,-92.37155485662477,18.259678276740033,279.2310072564529,294.67927550279774,0,9.052371332556314,224.8922871593628,11.030192248185886,19.307700241881765,0.004305517670104502,0.010766685059131323,3.3000370650648376,3.094141693592324,-0.020981146217025983,-0.05360033005495042,2.8306076197247894,3.0739956747451282,9187732120.384132,0.0,-6224431739.818629,0.5865413789635258,-0.39575440688836416,0.5844840152264584,0.3971474488609512,-0.020981146217025983,-0.05360033005495042,2.8306076197247894
24.71,-92.37068390321703,18.261835818176934,279.57281681961564,295.0030470972333,0,9.03862899354893,224.8682612775204,11.030106795795096,19.319093893987187,0.007917758252192098,0.019614013062736975,3.107359665115584,2.748358425824852,0.032838550746251034,0.08043025457823362,-1.7516127268114043,3.678457847613342,6258287948.87031,0.0,383298684759.2431,0.5881505677840484,-0.39414833910459746,0.5841606444188715,0.3968404438921488,0.032838550746251034,0.08043025457823362,-1.7516127268114043
24.9,-92.3698026591305,18.263997876462717,280.13239722650997,295.53327061024675,0,9.014231019021729,224.82107954624416,11.029966900693372,19.337746574217,0.004638126771202447,0.011379254135702926,2.945160036285965,3.413545874488338,-0.01726121832099837,-0.04334083645807446,-0.8536822569980063,11.187796167471394,161670173809.9078,0.0,-368240871347.4319,0.5880461210440784,-0.3936866364733757,0.5855977146772577,0.3953326553069787,-0.01726121832099837,-0.04334083645807446,-0.8536822569980063
25.1,-92.36891122378577,18.26616400392576,280.4634097730513,295.8469075883884,0,8.985495933958338,224.76364584287256,11.029884147556738,19.348780325768374,0.004457176723633375,0.010830637315208792,1.65506273270663,3.3144460676939844,-0.000904750237845347,-0.0027430841024706333,-6.450486517896582,13.876949917324435,332077398769.036,0.0,-4919351619.644873,0.5895626989237769,-0.39212538601227087,0.5854054656182419,0.3949100486271892,-0.000904750237845347,-0.0027430841024706333,-6.450486517896582
25.2,-92.36800913682859,18.26833473280009,281.0694002574889,296.42130309226326,0,8.975355301623052,224.7319440989134,11.029732649935628,19.368980008582962,0.009020869571827654,0.02170728874329388,6.059904844376107,3.3781254047079927,0.04563692848194376,0.1087665142808532,44.048421116695714,14.768849506100375,332077398769.036,0.0,-4919351619.644873,0.589304459398214,-0.39174552504149973,0.5870229129148422,0.39326809870152435,0.04563692848194376,0.1087665142808532,44.048421116695714
25.4,-92.36709738812944,18.270509685226404,281.6303069804064,296.9530636547535,0,8.94821553070147,224.66257787119167,11.029592423254899,19.38767689934688,0.004558743495763923,0.010874762131578602,2.8045336145874087,3.0774851486003554,-0.022310630380318736,-0.05416263305857658,-16.27685614894355,16.581704436842468,332077398769.036,0.0,-4919351619.644873,0.5900081092491158,-0.3907725287428016,0.5875326412815783,0.3924189817388196,-0.022310630380318736,-0.05416263305857658,-16.27685614894355
25.5,-92.3661753877831,18.272688543253174,281.9728816447214,297.2778287820898,0,8.935096251230048,224.6249164703611,11.02950677958882,19.39909605482405,0.00922000346335481,0.02178858026770283,3.4257466431500427,3.9663911449319365,0.046612599675908216,0.10913818136124073,6.212130285626253,24.606941858726685,332077398769.036,0.0,-4919351619.644873,0.5914601457514168,-0.3892564147774537,0.5873894811950414,0.39195399847907636,0.046612599675908216,0.10913818136124073,6.212130285626253
25.7,-92.36524364610827,18.274871528837643,282.2612687556854,297.55122752690795,0,8.904557128310831,224.54364546385537,11.029434682811079,19.408708958522848,0.004658708374165615,0.010914927922343092,1.4419355548201958,3.326467040220698,-0.022806475445946058,-0.054368261726798886,-9.91905544164927,18.88227772046691,332077398769.036,0.0,-4919351619.644873,0.5924564738069109,-0.3880859539382245,0.5876004416732304,0.3912931636836557,-0.022806475445946058,-0.054368261726798886,-9.91905544164927
25.8,-92.364301313647,18.277058943846924,282.8712275208833,298.1297475931685,0,8.893782090320075,224.50003947021156,11.029282193119778,19.429040917362776,0.009423324612640593,0.021874150092812926,6.099587651978508,3.398513778173375,0.0476461623847491,0.10959222170469678,46.57652097158246,16.304117854928233,332077398769.036,0.0,-4919351619.644873,0.5918393553278678,-0.38794152583795344,0.5895328609509405,0.3894593122196634,0.0476461623847491,0.10959222170469678,46.57652097158246
26.01,-92.36334899116434,18.279250410059074,283.47189205023255,298.69956949241816,0,8.864007371422817,224.40203165560322,11.029132026987442,19.449063068341083,0.004534868965051702,0.01043555339118856,2.860307282615578,3.3472641429925964,-0.023278360226613674,-0.054469508102972956,-15.42514461601389,15.072385531876725,332077398769.036,0.0,-4919351619.644873,0.5924773044649321,-0.38699271506062677,0.5901251171334422,0.3885352343252977,-0.023278360226613674,-0.054469508102972956,-15.42514461601389
26.1,-92.36238705964783,18.2814454691641,283.7567132559826,298.9697210582305,0,8.851380837055933,224.3573630475999,11.029060821686004,19.45855710853275,0.01068812796126573,0.024389545611411614,3.164680063889596,3.6303323603719604,0.0683695444023782,0.15504435800247865,3.3819197919335364,13.400958236393723,4380311553.893817,0.0,355703443209.64,0.5943837053019366,-0.38522280517139085,0.5894034045169154,0.3884778346203225,0.0683695444023782,0.15504435800247865,3.3819197919335364
26.2,-92.36141497030705,18.2836445727651,284.07366215271367,299.27039306124914,0,8.837259906350814,224.30585847190287,11.028981584461821,19.469122071757123,0.009720893407774362,0.021991036009972233,3.169488967310553,3.0418283354399103,-0.009672345534913888,-0.02398509601439432,0.04808903420956959,4.6855570151445365,4380311553.893817,0.0,355703443209.64,0.5947590063516195,-0.38444140177806735,0.5902642783139728,0.3873688354902002,-0.009672345534913888,-0.02398509601439432,0.04808903420956959
26.4,-92.36043312457316,18.285847872379257,284.6451221573353,299.8127205562414,0,8.80809645155065,224.19694427119282,11.028838719460666,19.488170738577843,0.004909228669447447,0.011016498070795007,2.8573000231082903,3.063593593499997,-0.024058323691634662,-0.05487268969588633,-1.560944721011318,1.7887818399430568,4380311553.893817,0.0,355703443209.64,0.5943437543999032,-0.3842064050926959,0.5918402883803234,0.38583158624129044,-0.024058323691634662,-0.05487268969588633,-1.560944721011318
26.5,-92.35944096409843,18.28805456943896,284.9608242890851,300.11229674015425,0,8.793669325470615,224.13953948679304,11.028759793927728,19.498694142969505,0.009921604747375882,0.022066970597016365,3.157021317497834,2.721941798596988,0.05012376077928364,0.11050472526221201,2.997212943895395,2.6241985325473665,4380311553.893817,0.0,355703443209.64,0.5960028541514499,-0.3825596777770209,0.5914527020334902,0.385502778251663,0.05012376077928364,0.11050472526221201,2.997212943895395
26.7,-92.35843916075574,18.29026537529285,285.55465056952715,300.67602756720464,0,8.764157845355884,224.018847306362,11.028611337357617,19.518488352317572,0.005009016713444244,0.01105402926945946,2.969131402210234,3.2596798486754466,-0.02456294016965828,-0.05506470663778472,-0.939449576438004,11.41678669379609,4380311553.893817,0.0,355703443209.64,0.5955072750746242,-0.3823801691853825,0.5930781843042616,0.3839462968297967,-0.02456294016965828,-0.05506470663778472,-0.939449576438004
26.9,-92.3574275966381,18.292479471206907,285.84594702254924,300.95251231164497,0,8.731257634545745,223.89032966901024,11.028538513244362,19.528198234084975,0.005057820588163527,0.011070479570278775,1.4564822651104288,3.2702423215516427,0.00024401937359641666,8.225150409657574e-05,-7.563245685499053,17.000737314455666,4380311553.893817,0.0,355703443209.64,0.5973664419446272,-0.3806436486302007,0.5923953806087012,0.3838378040649158,0.00024401937359641666,8.225150409657574e-05,-7.563245685499053
27.0,-92.3564063340582,18.294697638365513,286.4317689743622,301.50880589197277,0,8.719077450211282,223.82314338951878,11.02839205775641,19.54772563247874,0.01021262579897083,0.022181671586060898,5.858219518129802,3.222633421807577,0.0515480521080723,0.11111192015781965,44.01737253019311,16.415975255330675,4380311553.893817,0.0,355703443209.64,0.5966832077126796,-0.38057954668320926,0.5942011417990612,0.38216928364901626,0.0515480521080723,0.11111192015781965,44.01737253019311
27.1,-92.3553750855479,18.29691895787254,286.7227724534966,301.7850904103163,0,8.703863605886283,223.75400942197925,11.028319306886626,19.557425748449887,0.010312485103014378,0.022213195070257225,2.910034791343564,3.210862294393209,0.0009985930404354663,0.00031523484196326995,-29.481847267861962,16.258088869238414,4380311553.893817,0.0,355703443209.64,0.5985491025984715,-0.37882818335899004,0.593533028926571,0.38202974078563834,0.0009985930404354663,0.00031523484196326995,-29.481847267861962
27.3,-92.35433430385768,18.2991442207524,287.3065811908001,302.33963243257807,0,8.673204767092841,223.60991079962054,11.0281733547023,19.57688603969334,0.005203908451107982,0.01112631439930571,2.9190436865175786,3.495817623922548,-0.025542883259532072,-0.05543440335475777,0.045044475870073146,14.776853176344925,4380311553.893817,0.0,355703443209.64,0.5978405578025923,-0.3787849412232273,0.5953301776531102,0.38038219638189913,-0.025542883259532072,-0.05543440335475777,0.045044475870073146
27.4,-92.35328344195625,18.301372527951166,287.5976008194355,302.61600948398706,0,8.65774556599126,223.5349525491609,11.02810059979514,19.586586693981186,0.010508619014331312,0.022283071987665912,2.9101962863541697,2.903443460784092,0.053047105632234436,0.1115675758836044,-0.08847400163409092,5.988434493099235,4380311553.893817,0.0,355703443209.64,0.5997123647435271,-0.37702851051064457,0.5946569024468523,0.380233809922482,0.053047105632234436,0.1115675758836044,-0.08847400163409092
27.6,-92.35222338302988,18.303604590337628,288.1738574748772,303.1635321682661,0,8.626536653598883,223.37923482686017,11.027956535631281,19.605795249162572,0.005300294631851368,0.011160311932307663,2.88128327720837,2.8925931691319158,-0.026041621912399355,-0.05561380027679046,-0.14456504572899725,0.17699486796830083,6851543934.15,0.0,159117796018.45035,0.598984132993307,-0.3770116446063103,0.5964211867302308,0.37863174229428365,-0.026041621912399355,-0.05561380027679046,-0.14456504572899725
27.8,-92.3511537204821,18.30583971870439,288.75313209490827,303.71402775626046,0,8.595060011551368,223.2158053548394,11.027811716976272,19.625104403163608,0.005348312738888713,0.01117564183381607,2.8963731001553685,2.8891092170720727,0.00024009053518672834,7.6649507542038e-05,0.07544911473499365,0.25335247006332157,15980602030.85,0.0,330167005283.1754,0.5995426537966674,-0.3761274723009077,0.5969835429789947,0.37773983145973133,0.00024009053518672834,7.6649507542038e-05,0.07544911473499365
27.9,-92.350073657933,18.308077993768936,289.0387099196172,303.9853576349496,0,8.579174033712953,223.13120773855115,11.027740322520096,19.63462366398724,0.0108006254910722,0.022382750645455952,2.8557782470892943,2.8772330440383835,0.05452312752183602,0.11207108811640121,-0.4059485306607511,0.2751154768604781,15980602030.85,0.0,330167005283.1754,0.6014721836786827,-0.37432893728996797,0.5962606526395342,0.37760070588127476,0.05452312752183602,0.11207108811640121,-0.4059485306607511
28.0,-92.34898374921876,18.310319536174735,289.3288641913941,304.26106266709917,0,8.56326494222575,223.0446931867965,11.02766778395215,19.64429547304647,0.010899087142348508,0.022415424057981817,2.9015427177688067,2.5826483461301635,0.0009846165127630686,0.0003267341252586412,0.45764470679511743,1.686263839130626,15980602030.85,0.0,330167005283.1754,0.6020021493992446,-0.3734588285986191,0.5968530659126045,0.3766806779902057,0.0009846165127630686,0.0003267341252586412,0.45764470679511743
28.2,-92.34788505839121,18.312564196492314,289.89904265492737,304.8031115563814,0,8.531146354983381,222.8659287422218,11.027525239336267,19.663301421830912,0.005493454137734963,0.011223301587897123,2.850892317666488,3.1085720346436605,-0.02702816502306782,-0.05596061235042367,-0.25325200051159324,9.906473250304677,15980602030.85,0.0,330167005283.1754,0.6012362830925891,-0.3734680506658729,0.598606805989636,0.3751085694138797,-0.02702816502306782,-0.05596061235042367,-0.25325200051159324
28.4,-92.34677583971724,18.314812005220368,290.1807087571993,305.0708165026738,0,8.495889790185657,222.67954380099016,11.0274548228107,19.672690291906644,0.005546093369872571,0.011239043640269881,1.4083305113595708,3.04652382328142,0.00026319616068804045,7.871026186379055e-05,-7.212809031534613,12.801916513617282,15980602030.85,0.0,330167005283.1754,0.6031909141015116,-0.37165800725740117,0.5978469025939407,0.37498016993658695,0.00026319616068804045,7.871026186379055e-05,-7.212809031534613
28.5,-92.3456578676781,18.317062572786835,290.73330484748254,305.5962857363435,0,8.482289073159915,222.58350394593364,11.027316673788128,19.69111016158275,0.011179720391396426,0.02250567566466767,5.525960902832516,2.9352705557331,0.05633627021523775,0.1126663202439763,41.17630391472886,13.111922406225565,15980602030.85,0.0,330167005283.1754,0.6023817255965968,-0.3716824043179764,0.5996486026996851,0.3733764859602034,0.05633627021523775,0.1126663202439763,41.17630391472886
28.7,-92.34453010696924,18.319315909550003,291.2424276773347,306.08048166366046,0,8.448956378632584,222.3857508088605,11.027189393080667,19.708080922577825,0.005638803544272284,0.011266683815840435,2.5456141492608797,2.8082267546263,-0.027704584235620812,-0.05619495924413638,-14.901733767858234,13.319152378747091,15980602030.85,0.0,330167005283.1754,0.6030598367271229,-0.37071063168117946,0.6000825056619885,0.3725499258940017,-0.027704584235620812,-0.05619495924413638,-14.901733767858234
28.8,-92.34339180249941,18.321572645799574,291.47695240059505,306.3034374840478,0,8.432008223328172,222.28404631583962,11.027130761899851,19.715898413353166,0.011383044698334127,0.02256736249570647,2.3452472326033225,2.9332166147373053,0.05744241154061761,0.11300678679865875,-2.003669166575544,12.059288425168742,15980602030.85,0.0,330167005283.1754,0.6053895319240447,-0.3686871387362236,0.5989001635217898,0.37268203941276273,0.05744241154061761,0.11300678679865875,-2.003669166575544
28.9,-92.34224380939027,18.32383230175781,291.69850797337904,306.51406554328184,0,8.414878653080097,222.1804625388317,11.027075373006655,19.723283599112634,0.011479931091429552,0.022596559582375646,2.215555727839889,2.021555133081283,0.0009688639309542722,0.0002919708666917757,-1.2969150476343627,4.889658265476959,15980602030.85,0.0,330167005283.1754,0.6061266832221962,-0.3676969281115674,0.5992323849845443,0.3719273608234693,0.0009688639309542722,0.0002919708666917757,-1.2969150476343627
29.1,-92.34108673297581,18.32609387758058,292.1051671540734,306.9008808947052,0,8.380107565583263,221.96767563099903,11.02697370821148,19.736838905135777,0.005785382072289653,0.011307879113839741,2.0332959034717812,2.234961687356452,-0.02847274509569909,-0.05644340234267872,-0.9112991218405256,7.199269237501961,507086185986.9125,0.0,1002363525760.8754,0.60509609496893,-0.3678061299369099,0.6013278899547089,0.37011097713632046,-0.02847274509569909,-0.05644340234267872,-0.9112991218405256
29.3,-92.33991918880182,18.328359003358507,292.2986925033311,307.0848662156886,0,8.34302152353511,221.74742791358565,11.026925326874167,19.74328975011104,0.005837720869976713,0.011325628889640211,0.9676267462884914,2.1312452544450604,0.00026169398843530275,8.874887900234999e-05,-5.328345785916468,8.583611007312749,507086185986.9125,0.0,1002363525760.8754,0.607733678837203,-0.3656173258389518,0.5997837846126277,0.3704634372905459,0.00026169398843530275,8.874887900234999e-05,-5.328345785916468
29.4,-92.33874248262522,18.33062596911801,292.659951284066,307.42853201562826,0,8.3270594822842,221.63451843546756,11.026835012178983,19.755331709468866,0.011767061765937366,0.02266965759503185,3.612587807348936,2.100803183233567,0.059293408959607795,0.1134402870539188,26.44961061060501,8.798077247357828,507086185986.9125,0.0,1002363525760.8754,0.6064296450419815,-0.36588476928165037,0.6021572303587368,0.3684807880319745,0.059293408959607795,0.1134402870539188,26.44961061060501
29.6,-92.33755554041369,18.33289534482247,293.0253025614475,307.77613155690136,0,8.291445561402941,221.40315333108774,11.026743674359638,19.767510085381584,0.005934711057662328,0.011346878522306819,1.8267563869076493,1.8598944603235232,-0.029161753541374777,-0.05661389536362435,-8.929157102206307,9.850084389340878,507086185986.9125,0.0,1002363525760.8754,0.606984413605934,-0.3649578970962551,0.6027444948626147,0.36752514049973656,-0.029161753541374777,-0.05661389536362435,-8.929157102206307
29.7,-92.33635880834485,18.335168600373287,293.23163560289436,307.9723586361869,0,8.273820013931235,221.28470798768143,11.026692091099276,19.77438785342981,0.011967320688342198,0.022732555508149718,2.06333041446844,2.3852558403762973,0.060326096306799984,0.11385676985843142,2.365740275607959,14.315941625016947,507086185986.9125,0.0,1002363525760.8754,0.6091144690656005,-0.36315195146850754,0.6015776960435155,0.36770164446534925,0.060326096306799984,0.11385676985843142,2.365740275607959
29.9,-92.3351524828059,18.337444665611017,293.39737397806874,308.1299422615629,0,8.235999163953377,221.04231803929207,11.026650656505483,19.779912465935624,0.0060316276947958375,0.011380326188650298,0.8286918758719283,2.054151343029424,-0.029678464967731907,-0.0567611465974973,-6.173192692982581,10.663320174673263,507086185986.9125,0.0,1002363525760.8754,0.6105561335172246,-0.3617457873227426,0.6011403227051373,0.3674119018168975,-0.029678464967731907,-0.0567611465974973,-6.173192692982581
30.0,-92.33393594039293,18.339721940316437,293.7568164588709,308.4719895600628,0,8.219808180708444,220.91838420715567,11.026560795885281,19.791893881962363,0.012165424129619677,0.022772747054204633,3.5944248080215346,2.021850817679911,0.061337964348237524,0.11392420865554173,27.65732932149567,9.462057100909961,507086185986.9125,0.0,1002363525760.8754,0.6086372418222393,-0.36228845855297337,0.6042811423914031,0.3649000981316232,0.061337964348237524,0.11392420865554173,27.65732932149567
30.2,-92.33270938791031,18.342001894211705,294.1482390194317,308.84453172208225,0,8.184068900255577,220.6650663675043,11.02646294024514,19.804941300647723,0.006132762413102477,0.011399769476341288,1.9571128028039266,1.9360481271523107,-0.03016330858258611,-0.05686488788931693,-8.186560026088069,9.049861393321148,507086185986.9125,0.0,1002363525760.8754,0.6089978376710219,-0.3615084890036922,0.6049831329962531,0.3639074812096133,-0.03016330858258611,-0.05686488788931693,-8.186560026088069
30.3,-92.33147385237021,18.34428588696142,294.31474863610697,309.00288858389064,0,8.165869863734368,220.53569361851822,11.026421312840974,19.810491621203564,0.012355355401041204,0.02283992749713771,1.6650961667528226,2.0434588666619673,0.06222592987938639,0.11440158020796258,-2.9201663605109993,8.083956526057518,507086185986.9125,0.0,1002363525760.8754,0.6121297390057017,-0.35917521376850037,0.6026578476128057,0.3648203217336773,0.06222592987938639,0.11440158020796258,-2.9201663605109993
30.4,-92.33022881099185,18.346572458173764,294.4781755874701,309.1583150597409,0,8.147617728507905,220.40451928982168,11.026380456103132,19.815939186249004,0.012450413783540436,0.022865712123448165,1.6342695136313872,1.4444118212746042,0.0009505838249923426,0.0002578462631045635,-0.30826653121436054,4.0867999294564346,507086185986.9125,0.0,1002363525760.8754,0.6127302196148178,-0.3582880999058454,0.6030465367157054,0.364041467406983,0.0009505838249923426,0.0002578462631045635,-0.30826653121436054
30.6,-92.32897333120108,18.3488602174016,294.7513322543057,309.418273302272,0,8.110517626063595,220.13678929290208,11.026312166936423,19.825044408476856,0.006277398953855506,0.011438796139184696,1.3657833341778576,1.1653651975564197,-0.030865074148424213,-0.05713457992131653,-1.3424308972676289,2.4869400241187556,507086185986.9125,0.0,1002363525760.8754,0.6114015543881048,-0.35844961870711667,0.6055884097025264,0.3618904366994202,-0.030865074148424213,-0.05713457992131653,-1.3424308972676289
30.7,-92.3277093906296,18.351151684143588,294.81120331960204,309.4750657035341,0,8.091175055477708,220.00024552374597,11.026297199170099,19.827040110653403,0.01263940571490734,0.022914667419869295,0.5987106529636449,0.8436184570502082,0.06362006761051969,0.11475871280684843,-7.6707268121422905,2.4090956533611676,507086185986.9125,0.0,1002363525760.8754,0.6220416518152375,-0.35158161998594206,0.5954464117509272,0.36728479226341054,0.06362006761051969,0.11475871280684843,-7.6707268121422905
30.91,-92.32643511711449,18.3534453278453,294.92917786854395,309.5872082871839,0,8.050433925457158,219.70772426727808,11.026267705532863,19.83097259561813,0.0060679691195613715,0.010922112865296412,0.561783566390007,0.5644429688463367,-0.031292555215933056,-0.05710740264082302,-0.1758432693982748,2.7126457221813935,507086185986.9125,0.0,1002363525760.8754,0.6161746258080287,-0.35458161850241254,0.602622792297919,0.36255548062828175,-0.031292555215933056,-0.05710740264082302,-0.1758432693982748
31.11,-92.32515256869746,18.35574195790032,294.9401807885052,309.59744395458824,0,8.010577571516478,219.42189622015724,11.026264954802873,19.83133935961684,0.006412742085117907,0.011483150275104534,0.055014599806213677,0.34170382688643847,0.0017238648277826812,0.002805187049040619,-2.5338448329189758,2.4741349287414747,9.075575010822986,0.0,0.2750964278664737,0.6770265667630043,-0.3135598948146766,0.5342478521739001,0.3973593495923843,0.0017238648277826812,0.002805187049040619,-2.5338448329189758
31.21,-92.32385911362442,18.358040933651395,294.9638944690409,309.6197856547567,0,7.990821341109457,219.27635088452203,11.02625902638274,19.832129815634694,0.012934550730392218,0.02298975751074262,0.23713680535706436,0.2814788429878311,0.06521808645274219,0.11506607235637924,1.8212220555084808,0.9898592096707308,8.250941886576033,0.0,0.27508880642783834,0.6432551228719139,-0.33664224850631064,0.5756682700329309,0.37616603554407596,0.06521808645274219,0.11506607235637924,1.8212220555084808
31.3,-92.32255794034465,18.360342714391503,294.9864334018795,309.6410062966462,0,7.973049121891111,219.1438674006834,11.02625339164953,19.832881113395985,0.0144574808863417,0.02557534155675813,0.25043258709539906,0.23308309012016334,0.016921446177216484,0.02872871162239459,0.14773090820371917,1.0020458810352515,8.250941886576033,0.0,0.27508880642783834,0.6453594552634598,-0.33493222082865626,0.5740763911039466,0.3765207539165713,0.016921446177216484,0.02872871162239459,0.14773090820371917
31.5,-92.32124514751031,18.362646929365017,295.04600588091466,309.6975051467479,0,7.933645564074849,218.8444214991993,11.026238498529771,19.834866862697154,0.006563964171704152,0.011521074867566525,0.2978623951759129,0.39873033121752355,-0.03946758357318787,-0.07027133344595828,0.23714904040257,1.061294183337721,8.250941886576033,0.0,0.27508880642783834,0.624803349051379,-0.34731588526108315,0.5976081728986928,0.3631210852376613,-0.03946758357318787,-0.07027133344595828,0.23714904040257
31.6,-92.31992528397576,18.364953397768797,295.077889702197,309.72762406482735,0,7.913966283155863,218.6921055835275,11.02623052757445,19.8359296567399,0.013198635345474753,0.02306468403780538,0.3188382128234889,0.3732340980726751,0.06634671173770507,0.1154360917023869,0.20975817647575704,1.6911032908919499,8.250941886576033,0.0,0.27508880642783834,0.6365894114150994,-0.33967692903812197,0.5857390419589739,0.36916565370899757,0.06634671173770507,0.1154360917023869,0.20975817647575704
31.8,-92.3185944787969,18.36726221875333,295.2548298639261,309.89594022176044,0,7.87575248962879,218.38232166987942,11.026186292534017,19.841827662130868,0.00665402589433486,0.01154410492265616,0.8847008086453942,0.35723189156960566,-0.032723047255699585,-0.0576028955757463,2.829312979109537,2.222169230682004,8.250941886576033,0.0,0.27508880642783834,0.6168391808684066,-0.35109771646912696,0.6076189043955355,0.35642542762396584,-0.032723047255699585,-0.0576028955757463,2.829312979109537
32.0,-92.31725427123062,18.369574221423818,295.23276746644075,309.8746580137668,0,7.835579387809247,218.06571433346755,11.02619180813339,19.84109224888136,0.006701037831362579,0.011560013352447426,-0.11031198742671261,0.31046227556920447,0.00023505968513859527,7.954214895633555e-05,-4.975063980360552,2.629056236301227,8.250941886576033,0.0,0.27508880642783834,0.6484714495689364,0.33111554417211647,-0.5746636028287465,0.3736429031648403,0.00023505968513859527,7.954214895633555e-05,-4.975063980360552
32.1,-92.31590745073406,18.371887134841344,295.24977201221134,309.8905950147739,0,7.815789707880017,217.90486942364905,11.026187556996947,19.84165906707371,0.01346820496564741,0.023129134175263414,0.17004545770589388,0.2577339551845126,0.06767167134284735,0.11569120822815823,2.8035744513260252,2.688066093138318,8.250941886576033,0.0,0.27508880642783834,0.6589634250323632,-0.3238631921015766,0.5633569463498302,0.3788255380393312,0.06767167134284735,0.11569120822815823,2.8035744513260252
32.2,-92.31455114696399,18.37420209802395,295.24392750582984,309.88475984674074,0,7.795785208116568,217.74233985920674,11.026189018123542,19.841464250194328,0.01356303770066328,0.023149631826057896,-0.058445063814928366,0.13779412442701852,0.0009483273501586756,0.0002049765079448178,-2.28490521520819,2.4794975066560734,8.250941886576033,0.0,0.27508880642783834,0.7303462330116065,0.2684138094927478,-0.46834921439691063,0.4185659089953978,0.0009483273501586756,0.0002049765079448178,-2.28490521520819
32.41,-92.31318476977619,18.376519859947813,295.25544075400126,309.8954595655468,0,7.754066994823455,217.39557644805382,11.0261861398115,19.841848025133373,0.006506558037177281,0.011036961542201991,0.05482499129243642,0.2509498381896549,-0.03360228411183908,-0.05767938230407745,0.5393812147969913,2.268122120024712,8.250941886576033,0.0,0.27508880642783834,0.6802517339931256,-0.30828574861908153,0.5396110028796888,0.38863535758972695,-0.03360228411183908,-0.05767938230407745,0.5393812147969913
32.6,-92.31181114922468,18.378838709548308,295.20133846553375,309.84364189346263,0,7.715751672871702,217.07552064172225,11.026199665383617,19.84004461551779,0.007229581850023359,0.012204471581555236,-0.2847488866710687,0.221997051210425,0.003805388488663469,0.006144789680806395,-1.7872309366499812,3.0513225975327636,8.250941886576033,0.0,0.27508880642783834,0.629439007756781,0.3412996852965221,-0.5988633849657261,0.35872511269500873,0.003805388488663469,0.006144789680806395,-1.7872309366499812
32.7,-92.31042742556126,18.381160115721205,295.1337027513293,309.77892852548825,0,7.6952274989805325,216.90467764296184,11.026216574312167,19.837790091710975,0.01383723663423078,0.023214061728964123,-0.6763571420446982,0.24507919029596584,0.06607654784207327,0.11009590147408731,-3.91608255373624,2.769988045384649,8.250941886576033,0.0,0.27508880642783834,0.6269727981034517,0.3422370415360045,-0.6024211432189265,0.3561849014792923,0.06607654784207327,0.11009590147408731,-3.91608255373624
32.8,-92.30903672923462,18.383482497323726,295.13329482437376,309.7782632860145,0,7.675401213701284,216.732194442381,11.026216676293906,19.837776494145793,0.013906963266379871,0.02322381602521649,-0.004079269555177466,0.2669784401801534,0.0006972663214909484,9.75429625236765e-05,6.72277872489559,3.0057354047316442,8.250941886576033,0.0,0.27508880642783834,0.8675548303466243,0.036840669170820003,-0.06500200019260291,0.49169718466577267,0.0006972663214909484,9.75429625236765e-05,6.72277872489559
33.0,-92.30763680088987,18.385808613175723,295.0974534997271,309.7438374401482,0,7.635483146710776,216.38233817188154,11.026225636625067,19.836581783324235,0.006999641723766004,0.01163057925998229,-0.17920662323319647,0.23998893317270514,-0.034536607713068844,-0.05796618382617018,-0.8756367683900826,2.6928427888509585,8.250941886576033,0.0,0.27508880642783834,0.6383821857687232,0.33457723530028305,-0.5918551819397172,0.3608790685576964,-0.034536607713068844,-0.05796618382617018,-0.8756367683900826
33.2,-92.30622909136763,18.388135082060792,295.1305014945133,309.775041527343,0,7.596380165263412,216.02601402597276,11.026217374626372,19.837683383150445,0.007038547611202162,0.011632344425347276,0.1652399739307929,0.16209607975808465,0.00019452943718078765,8.825826824931812e-06,1.7222329858199226,2.049320472108533,8.250941886576033,0.0,0.27508880642783834,0.6407313355181374,-0.3327004383643834,0.590176802486498,0.3611995512235642,0.00019452943718078765,8.825826824931812e-06,1.7222329858199226
33.3,-92.30481257170362,18.39046599272739,295.14526712790916,309.788825446193,0,7.576863344193286,215.8454462506239,11.026213683218023,19.838175570930304,0.014165196640051031,0.023309106665970962,0.14765633395882943,0.22143166933603559,0.07126649028849275,0.1167676224062435,-0.17583639971964465,0.7733173486545304,8.250941886576033,0.0,0.27508880642783834,0.6699480605754342,-0.3135894589362314,0.5575266487090632,0.3768226152376432,0.07126649028849275,0.1167676224062435,-0.17583639971964465
33.5,-92.30338754312777,18.392796123889976,295.20268872113536,309.84324702884743,0,7.538222943864554,215.4795394208042,11.026199327819716,19.840089624037844,0.0071251428792605915,0.01165065581293573,0.28710796613097095,0.34175305616855206,-0.0352002688039517,-0.05829225426517533,0.6972581608606977,3.0506503012074204,8.250941886576033,0.0,0.27508880642783834,0.6312753049589038,-0.3374699225356425,0.6019615426791367,0.353903718358799,-0.0352002688039517,-0.05829225426517533,0.6972581608606977
33.61,-92.30195389706357,18.395130854230135,295.23822909744433,309.8768198057979,0,7.517079859648817,215.27559793865814,11.026190442725639,19.841274303248145,0.013033146038181283,0.021224821274175534,0.32309433008157035,0.4601296848037877,0.053709119626552025,0.08703786782945322,0.32714876318726893,4.244583526230176,8.250941886576033,0.0,0.27508880642783834,0.6403814255935757,-0.3316944741714362,0.5929151792502054,0.3582485111951909,0.053709119626552025,0.08703786782945322,0.32714876318726893
33.7,-92.30051173512756,18.39746382239774,295.1679631821102,309.809582858146,0,7.498826588273335,215.10732521075317,11.026208009204472,19.83893210607034,0.01602402151124493,0.02592186852893086,-0.7807323926012898,0.5405843383229023,0.03323194970070594,0.05218941394172388,-12.264741363142427,5.509839707986613,-174430298794094.16,0.0,-173423088117.8842,0.6295484618247028,0.33752495929533527,-0.6054543416653457,0.3509568010815801,0.03323194970070594,0.05218941394172388,-12.264741363142427
33.9,-92.2990612291283,18.39980203701202,295.31947450241734,309.95364401659083,0,7.4614737364549,214.72886979090566,11.026170131374395,19.84398248341391,0.0072525299962934876,0.011691073071400632,0.7575566015356278,0.7259204980728178,-0.04385745757475815,-0.07115397728765267,7.691444970684752,6.693100744435097,-87331973464262.16,0.0,-273286733726.5437,0.6234747358794375,-0.34068351202348296,0.6122546728882944,0.3469268134374433,-0.04385745757475815,-0.07115397728765267,7.691444970684752
34.1,-92.29760223106591,18.402137846662775,295.20902328764936,309.8481135740212,0,7.421697941132948,214.3442404412284,11.026197744178088,19.840300776254978,0.007294990311947809,0.011679048253778579,-0.5522560738398773,0.7851935000935037,0.00021230157827160448,-6.0124088110262964e-05,-6.549063376877432,8.458662619479693,-87331973464262.16,0.0,-273286733726.5437,0.6260791303900193,0.33856696152488625,-0.61066284251445,0.3471141423596214,0.00021230157827160448,-6.0124088110262964e-05,-6.549063376877432
34.2,-92.29613598313136,18.40447846991144,295.08764336907757,309.7321727142371,0,7.401227093044527,214.14963186814148,11.02622808915773,19.836254778969252,0.014662479345446192,0.023406232486635425,-1.2137991857178858,1.1381870996542294,0.07367489033498278,0.1172718423285668,-6.615431118779991,12.33855941590472,-87331973464262.16,0.0,-273286733726.5437,0.6256393718860516,0.3385464884031489,-0.6115651244833192,0.3463376243662039,0.07367489033498278,0.1172718423285668,-6.615431118779991
34.4,-92.29466126770565,18.406820905292253,295.2116960799496,309.8500622184229,0,7.364120335968361,213.75587017127594,11.026197075980011,19.840389869331652,0.007373577128575605,0.01171217690407314,0.6202635543601919,1.0640223011828636,-0.03644451108435371,-0.058470277912812674,9.170313700390585,16.13141361174857,-87331973464262.16,0.0,-273286733726.5437,0.6258926574201176,-0.3379361016145683,0.6120828743287113,0.34556059897886854,-0.03644451108435371,-0.058470277912812674,9.170313700390585
34.5,-92.29317786735919,18.409160411313387,294.95708165547705,309.60718319609646,0,7.342487791137911,213.5567345479524,11.02626072958613,19.831902721849236,0.01483400346458531,0.023395060211334973,-2.5461442447254607,1.1981733174730116,0.07460426336009598,0.11682883307261666,-31.66407799085608,16.515457233033096,-87331973464262.16,0.0,-273286733726.5437,0.6229362512088764,0.338914867408115,-0.6161956916602213,0.3426222543253034,0.07460426336009598,0.11682883307261666,-31.66407799085608
34.61,-92.291685504851,18.411501306458078,294.9995453328247,309.6473322027131,0,7.321987578074132,213.33596313235807,11.026250113666794,19.833318177760823,0.01356693189261588,0.021280864951736894,0.3860334304332292,1.000375830394558,-0.011518832472449423,-0.019219956905437176,26.656160683260957,18.08518229260914,-87331973464262.16,0.0,-273286733726.5437,0.6398974751538066,-0.3287339539081321,0.5994291037838215,0.35092728360250675,-0.011518832472449423,-0.019219956905437176,26.656160683260957
34.8,-92.29018863312805,18.413846219185775,294.76715725109733,309.42563831139677,0,7.283701196069506,212.95041498136132,11.026308210687226,19.82557190836991,0.007878272226049159,0.012341645935246882,-1.2230951669862193,0.9704746501719035,-0.029940314034562047,-0.04704852113942168,-8.469097881155093,16.945306762638857,-2218972177826.224,0.0,63324359637.47356,0.6237942166432631,0.33778865259366114,-0.6163713876991591,0.3418565691736662,-0.029940314034562047,-0.04704852113942168,-8.469097881155093
34.9,-92.28868012532452,18.416188877933248,294.78949675132793,309.44660910561515,0,7.265092411759639,212.74536750193124,11.026302625812168,19.8263165583776,0.015085078035354867,0.023426587474730476,0.2233950023060029,0.4870503774562868,0.07206805809305605,0.11084941539483437,14.464901692922018,10.95472133243158,-4437944355812.117,0.0,126648719275.07266,0.6580597536014705,-0.3169558365159731,0.5810810182834567,0.35894457591540874,0.07206805809305605,0.11084941539483437,14.464901692922018
35.1,-92.28716626476104,18.418536441115762,294.69535577646496,309.3566166385158,0,7.226693358820713,212.33091568811068,11.026326161055884,19.823178525882167,0.007569302817387217,0.011737815912571226,-0.4707048743148267,0.4321906704798778,-0.03757887608983772,-0.05844385781079542,-3.470499383104099,6.099177553166329,-4437944355812.117,0.0,126648719275.07266,0.6300165728822198,0.33334062473574827,-0.6115999825029895,0.3433782276104098,-0.03757887608983772,-0.05844385781079542,-3.470499383104099
35.3,-92.28564487494403,18.42088406712819,294.6696729713604,309.3318370114,0,7.189266982055608,211.91071624109645,11.02633258175716,19.822322432378677,0.007606949085072918,0.011738130062131341,-0.12841402552283218,0.21889291408805808,0.0001882313384285111,1.5707478005777877e-06,1.7114542439600093,4.931675977331617,-4437944355812.117,0.0,126648719275.07266,0.6540286397070828,0.31889060690133286,-0.5866571587835485,0.355511880703046,0.0001882313384285111,1.5707478005777877e-06,1.7114542439600093
35.4,-92.28411204956484,18.423228934346156,294.6805746827561,309.34190436554724,0,7.170903910944101,211.69848445965792,11.02632985632931,19.822685822758537,0.01532825379186398,0.02344867217967528,0.10901711395717784,0.1890916742756586,0.07721304706790953,0.11710542117543771,2.3743113948000665,2.1191514322103817,-4437944355812.117,0.0,126648719275.07266,0.6950223825115102,-0.29160547933735853,0.5390027163960854,0.376013568832422,0.07721304706790953,0.11710542117543771,2.3743113948000665
35.5,-92.28257133249913,18.425574691127178,294.66515865927164,309.32689909241617,0,7.152355252020797,211.48484386190574,11.026333710335182,19.822171955309056,0.015407170657084416,0.02345756781021857,-0.15416023484476463,0.10236140952652018,0.0007891686522043417,8.895630543292883e-05,-2.631773488019387,1.4652248195677533,-4437944355812.117,0.0,126648719275.07266,0.6757248960969615,0.3042352738412357,-0.5638153218952109,0.3646217845133482,0.0007891686522043417,8.895630543292883e-05,-2.631773488019387
35.7,-92.28102617780603,18.427923405811793,294.6501965513905,309.3123251363457,0,7.115656751971413,211.05337426006213,11.026337450862153,19.821673218379683,0.007725773465523279,0.011743573423075138,-0.07481053940580189,0.17280486992401328,-0.03840698595780514,-0.058569971935716336,0.39674847719480805,1.9344958457601753,-4437944355812.117,0.0,126648719275.07266,0.6774525794694646,0.3029942257211176,-0.5620140186094184,0.36522971488683875,-0.03840698595780514,-0.058569971935716336,0.39674847719480805
35.9,-92.27947266972748,18.43027202672472,294.6432969114474,309.30542901479987,0,7.079371203609039,210.61638414013626,11.026339175772138,19.82144323038158,0.007767540392720373,0.011743104564630152,-0.034498199715358904,0.20583084357694661,0.00020883463598547335,-2.344292224926209e-06,0.20156169845221922,1.914094611088505,-4437944355812.117,0.0,126648719275.07266,0.7310983668753689,0.26405961297090164,-0.4912625870208134,0.39297426040829164,0.00020883463598547335,-2.344292224926209e-06,0.20156169845221922
