time,position_x,position_y,position_z,ground_station_distance,comm_range_status,wind_speed,wind_angle,battery_voltage,battery_current,velocity_x,velocity_y,velocity_z,velocity_total,acceleration_x,acceleration_y,acceleration_z,acceleration_total,angular_x,angular_y,angular_z,orientation_w,orientation_x,orientation_y,orientation_z,linear_acceleration_x,linear_acceleration_y,linear_acceleration_z
0.0,-61.242308829933535,29.95804724,269.3324017,277.8273701253085,0,7.693324017,180.0,11.032666899575,18.977746723333333,-0.0083216616123849,-0.011739589713037901,0.012359152323995204,0.032778455489800504,-0.08397759997933468,-0.11739471940757094,0.2606566705736669,0.25332013794502295,2069377441563055.2,0.0,-7733069139496.0,0.4305818879435627,0.3086232953225915,0.15952745105083269,-0.8330077380915533,-0.08397759997933468,-0.11739471940757094,0.2606566705736669
0.2,-61.24397316225601,29.95569932205739,269.3348735304648,277.82988008895677,0,7.733346068691314,180.59998222238025,11.032666281617383,18.97782911768216,-0.0083216616123849,-0.011739589713037901,0.012359152323995204,0.032778455489800504,-0.08397759997933468,-0.11739471940757094,0.2606566705736669,0.25332013794502295,2069377441563055.2,0.0,-7733069139496.0,0.4305818879435627,0.3086232953225915,0.15952745105083269,-0.8330077380915533,-0.08397759997933468,-0.11739471940757094,0.2606566705736669
0.3,-61.245645104417044,29.953351415892012,269.3387160124029,277.83372050294753,0,7.753378160529021,180.89994000119998,11.032665320996898,18.97795720041343,-0.016719421610318367,-0.023479061653794993,0.03842481938136189,0.032778455489800504,-0.08397759997933468,-0.11739471940757094,0.2606566705736669,0.25332013794502295,2069377441563055.2,0.0,-7733069139496.0,0.4098582842749094,0.39746582858304697,0.20490746754288122,-0.7950157430297733,-0.08397759997933468,-0.11739471940757094,0.2606566705736669
0.5,-61.247324889547485,29.95100361327997,269.3430996973098,277.83808734247265,0,7.793389335514455,181.4997222376539,11.032664225075672,18.97810332324366,-0.008398925652208789,-0.011739013060214631,0.0219184245344195,0.032778455489800504,0.04160247979054789,0.05870024296790181,-0.08253197423471195,0.25332013794502295,2069377441563055.2,0.0,-7733069139496.0,0.4025198713606353,0.4218572283027022,0.21688601504004487,-0.7829270007916631,0.04160247979054789,0.05870024296790181,-0.08253197423471195
0.6,-61.24901223060791,29.948655955995072,269.3474454367244,277.8424191085388,0,7.813402467326133,181.79952003839853,11.03266313864082,18.978248181224146,-0.016873410604247855,-0.02347657284897054,0.043457394145889346,0.040340240651343506,-0.08474484952039069,-0.11737559788755912,0.2153896961146985,0.25332013794502295,2069377441563055.2,0.0,-7733069139496.0,0.4021819184794195,0.420254852971122,0.21549006828673245,-0.7843466028945453,-0.08474484952039069,-0.11737559788755912,0.2153896961146985
0.81,-61.25070734038942,29.94630854580771,269.35001968225174,277.8450353129387,0,7.855323107926513,182.42881919217493,11.032662495079437,18.97833398940839,-0.0080719513405148,-0.011178143749341575,0.012258312034960212,0.03367003181155178,0.0419117107796812,0.05856394809347125,-0.14856705767109105,0.24576762175921796,2069377441563055.2,0.0,-7733069139496.0,0.42555471738467565,0.3164518892384796,0.16181895021122458,-0.8322115185826157,0.0419117107796812,0.05856394809347125,-0.14856705767109105
0.9,-61.252409941514415,29.943961354483697,269.35422728558433,277.849236640766,0,7.873299371251866,182.698380291575,11.032661443178604,18.978474242852812,-0.018917790277741795,-0.02607990360014394,0.04675114813987119,0.03468456593697811,-0.12050932152474443,-0.16557510945335965,0.383253734499011,0.2640013485557268,2069377441563055.2,0.0,-7733069139496.0,0.40221088725480053,0.414284114521662,0.21128730674767857,-0.7886398091879594,-0.12050932152474443,-0.16557510945335965,0.383253734499011
1.1,-61.254120226437465,29.941614503783146,269.3537903985242,277.8489372408326,0,7.913094505659592,183.29704301743396,11.032661552400368,18.97845967995081,-0.00855142461524849,-0.011734253502755362,-0.0021844353005917574,0.029630265320401243,0.051831828312466514,0.07172825048694287,-0.24467791720231466,0.2303288494074894,2134845336719935.2,0.0,-3834652066380.0874,0.45208218895062335,-0.06648844295460295,-0.03381693464373266,-0.888851729096809,0.051831828312466514,0.07172825048694287,-0.24467791720231466
1.2,-61.255838037446125,29.939268015459323,269.35495257300516,277.85018974004174,0,7.93297394030789,183.59616122861277,11.032661261856749,18.97849841910017,-0.017178110086604217,-0.0234648832382334,0.01162174480953128,0.03205998716543265,-0.08626685471355738,-0.11730629735478054,0.13806180110123056,0.23692656895206002,2134845336719935.2,0.0,-3834652066380.0874,0.4442309142438852,0.16851399156381602,0.08547905822489364,-0.8757598187187268,-0.08626685471355738,-0.11730629735478054,0.13806180110123056
1.4,-61.25756324666176,29.936921911257492,269.359482061114,277.85470830034734,0,7.972681049899613,184.19390487759242,11.032660129484722,18.978649402037135,-0.008626046078177298,-0.011730521009152287,0.022647440544290024,0.02417581573831028,0.042760320042134606,0.05867181114540558,0.05512847867379373,0.1645813290984494,2134845336719935.2,0.0,-3834652066380.0874,0.39623205754653684,0.42756251396460454,0.21631032013520382,-0.7831987606142586,0.042760320042134606,0.05867181114540558,0.05512847867379373
1.5,-61.259296056040405,29.9345763029138,269.3604082151129,277.85573545552165,0,7.992480347098327,184.49250374910727,11.032659897946221,18.978680273837096,-0.01732809378644616,-0.023456083436919052,0.009261539988756331,0.0307726509841519,-0.08702047708268855,-0.11725562427766754,-0.1338590055553368,0.17619767354076254,2134845336719935.2,0.0,-3834652066380.0874,0.445135147073776,0.13673248987271372,0.06898620308952204,-0.8822697041359333,-0.08702047708268855,-0.11725562427766754,-0.1338590055553368
1.7,-61.261036267373555,29.932231202154107,269.3622850874611,277.85768597760676,0,8.031987549008603,185.08908923171782,11.032659428728135,18.978742836248703,-0.00870105666574972,-0.01172550379846982,0.00938436174095614,0.027959703169643073,0.043135185603482215,0.05865289819224617,0.0006141087609990403,0.1681041714890596,2134845336719935.2,0.0,-3834652066380.0874,0.43128282374904925,0.251682210635602,0.12664427118924937,-0.8570953385496662,0.043135185603482215,0.05865289819224617,0.0006141087609990403
1.8,-61.26278374228904,29.92988665069286,269.3660495308367,277.8614680495065,0,8.051719642160014,185.38704932800138,11.03265848761729,18.978868317694555,-0.017474749154828814,-0.023445514612454567,0.03764443375587231,0.03217262511323943,-0.08773692489079087,-0.11720010813984737,0.28260072014916143,0.21463724192862355,2134845336719935.2,0.0,-3834652066380.0874,0.4028792236399642,0.3929234475952867,0.1971972037842535,-0.8027532362493255,-0.08773692489079087,-0.11720010813984737,0.28260072014916143
2.0,-61.26453865225188,29.927542740231956,269.3678748981585,277.8633720696048,0,8.091017410571707,185.98223801800413,11.03265803127546,18.97892916327195,-0.008774549814205558,-0.011719552304523265,0.009126836609141266,0.029483149567653306,0.04350099670311629,0.05862981153965652,-0.14258798573365525,0.20761371083307117,2134845336719935.2,0.0,-3834652066380.0874,0.43030939950412056,0.24603264516524737,0.12314334827240334,-0.8597310474722059,0.04350099670311629,0.05862981153965652,-0.14258798573365525
2.1,-61.266300778565146,29.925199492459612,269.3716740426079,277.86719121240293,0,8.110636540118279,186.27944015899064,11.032657081489347,18.979055801420262,-0.017621263132667746,-0.023432477723446234,0.03799144449374122,0.03565571963863741,-0.08846713318462181,-0.11712925418922958,0.2886460788459993,0.2587253448191699,2134845336719935.2,0.0,-3834652066380.0874,0.400852413820283,0.39461407826242134,0.19699148358229812,-0.802989057813117,-0.08846713318462181,-0.11712925418922958,0.2886460788459993
2.3,-61.268070272370736,29.922856969049185,269.37344801765045,277.8690488359727,0,8.149689527246881,186.87299398884537,11.032656637995586,18.979114933921682,-0.00884746902794832,-0.011712617052133127,0.008869875212838009,0.029303115333168994,0.043868970523597194,0.05859930335656561,-0.14560784640451624,0.22777825237281618,2134845336719935.2,0.0,-3834652066380.0874,0.4293188823118581,0.24030875846511984,0.11963907310180909,-0.8623360656280066,0.043868970523597194,0.05859930335656561,-0.14560784640451624
2.4,-61.269846904650315,29.920515211658074,269.3772704770579,277.8728939999732,0,8.169177957624848,187.16931929764107,11.032655682380735,18.979242349235264,-0.01776632279579358,-0.023417573911110857,0.038224594074449635,0.03265204463784831,-0.08918853767845254,-0.11704956858977719,0.293547188616116,0.23751385424874005,2134845336719935.2,0.0,-3834652066380.0874,0.398977356630782,0.39572037051829845,0.19649466166263252,-0.8035000343440328,-0.08918853767845254,-0.11704956858977719,0.293547188616116
2.61,-61.27163078622614,29.918174281926564,269.37884927492956,277.87456581747915,0,8.209882119087215,187.79054958741378,11.032655287681267,18.97929497583099,-0.008494674170596758,-0.011147284435760902,0.007518085103204917,0.0287599979003006,0.0441507077390325,0.05842994988261885,-0.14622147129164154,0.19634466187542782,2134845336719935.2,0.0,-3834652066380.0874,0.43040403938702426,0.21839071791964215,0.10815166608196958,-0.8691151099420436,0.0441507077390325,0.05842994988261885,-0.14622147129164154
2.7,-61.27342181776196,29.91583424147668,269.37967286571427,277.87550722015806,0,8.227259602034804,188.0563308041621,11.03265508178357,18.97932242885714,-0.019900350397961054,-0.02600044944315184,0.009151008718946358,0.03250903211205196,-0.12672973585960287,-0.16503516674878765,0.018143595730460396,0.194400698166208,1.7476134777503218,0.0,0.08367539127630721,0.43873221518826094,0.1217991305780273,0.06015734616127745,-0.8882905542947478,-0.12672973585960287,-0.16503516674878765,0.018143595730460396
2.9,-61.275219909763784,29.91349512191107,269.38455660423193,277.88038632162784,0,8.26575001625199,188.64590342175129,11.032653860848942,18.979485220141065,-0.008990460009137292,-0.01169559782805864,0.024418692588312783,0.026564253791851327,0.05454945194411888,0.0715242580754661,0.07633841934683222,0.14548283323150427,8.709463551392293,0.0,-0.08484542517288673,0.3848700583605712,0.44080206505861663,0.21714214728120348,-0.7812924327623414,0.05454945194411888,0.0715242580754661,0.07633841934683222
3.0,-61.277025122580895,29.91115699481184,269.3865960456952,277.88250979456814,0,8.28490637377963,188.94011988577776,11.032653350988577,18.979553201523174,-0.018052128171106557,-0.023381270992288684,0.020394414632960416,0.034511032454065345,-0.09061668161969257,-0.11685673164230034,-0.04024277955352363,0.19695880619369585,27.211761692000835,0.0,-0.08330146792557684,0.42097736754675846,0.2670673280754317,0.13120827708788763,-0.8568765875618723,-0.09061668161969257,-0.11685673164230034,-0.04024277955352363
3.21,-61.27883735640663,29.90881991173945,269.38911404573116,277.88509888551016,0,8.324922417642766,189.55666554280648,11.032652721488567,18.979637134857704,-0.008629684884468925,-0.0111289670113836,0.011990476361591262,0.033056523252261015,0.0448687775554173,0.0583443046709766,-0.040018753673186455,0.18415029153817322,14.147315744719123,0.0,0.08464209676651535,0.41293081328253894,0.31016323037556687,0.1519778998926984,-0.8427274956408026,0.0448687775554173,0.0583443046709766,-0.040018753673186455
3.3,-61.28065652127925,29.90648389423153,269.39315236040255,277.8891634829793,0,8.342017580393762,189.82033303863912,11.0326517119099,18.979771745346753,-0.020212943029049642,-0.025955750087981618,0.04487016301545238,0.03791710863249355,-0.12870286827311928,-0.16474203418442268,0.36532985170956855,0.21277324542038908,8446403125488.964,0.0,-1873330018847.6,0.3916541347279727,0.4061531303676968,0.19849115673018583,-0.8014037273078511,-0.12870286827311928,-0.16474203418442268,0.36532985170956855
3.5,-61.282482687082876,29.904149003801802,269.39759994622955,277.89362653490804,0,8.379771614373198,190.40498125354344,11.032650600013442,18.97991999820765,-0.00913082901814021,-0.011674452148646697,0.02223792913497389,0.03625083744123227,0.05541057005454711,0.07140648969667454,-0.11316116940239235,0.20741163248347197,8446403125488.964,0.0,-1873330018847.6,0.38628186254324337,0.4242083812494532,0.20676419743339094,-0.7925163333380374,0.05541057005454711,0.07140648969667454,-0.11316116940239235
3.6,-61.28431570354833,29.90181531193889,269.4019709602113,277.8980170268367,0,8.398568176152292,190.69661818922106,11.032649507259947,18.980065698673712,-0.01833016465454305,-0.023336918629119886,0.04371013981767642,0.04337152896079565,-0.09199335636402833,-0.11662466480473178,0.21472210682702514,0.24373559066455072,8446403125488.964,0.0,-1873330018847.6,0.38634152997589893,0.4210262446267652,0.2046748834137804,-0.7947234208521354,-0.09199335636402833,-0.11662466480473178,0.21472210682702514
3.8,-61.28615565025405,29.89948286010522,269.4066148598472,277.9026737545555,0,8.435907087424438,191.2784529096354,11.032648346285038,18.98022049532824,-0.009199733528610933,-0.011662259168350191,0.023219498179400975,0.03786074420036679,0.04565215562966066,0.058373297303848555,-0.10245320819137738,0.18440639720201407,8446403125488.964,0.0,-1873330018847.6,0.3826852274561393,0.4320579686891188,0.20947922305545924,-0.789301199471505,0.04565215562966066,0.058373297303848555,-0.10245320819137738
3.9,-61.288002376627006,29.897151699735865,269.4111340031583,277.90721120536284,0,8.454488170277905,191.56862483514698,11.03264721649921,18.98037113343861,-0.01846726372953354,-0.023311603693549877,0.04519143311085823,0.042666930497332375,-0.09267530200922598,-0.11649344525199676,0.21971934931457235,0.2080696915992582,8446403125488.964,0.0,-1873330018847.6,0.38321537480742285,0.4271612275017725,0.2065622838788387,-0.7924716304759075,-0.09267530200922598,-0.11649344525199676,0.21971934931457235
4.11,-61.289855951943494,29.894821882237427,269.4162250487086,277.91230476083115,0,8.493214749186563,192.17629692654444,11.032645943737823,18.980540834956955,-0.008826549126134895,-0.011094369040182371,0.024243074049189996,0.039382782499550045,0.04590816477808869,0.058177307873178485,-0.09975409076984854,0.17479099189335115,8446403125488.964,0.0,-1873330018847.6,0.37680712497136065,0.4481871627989642,0.21615406259936523,-0.7812951291892342,0.04590816477808869,0.058177307873178485,-0.09975409076984854
4.2,-61.291716255330144,29.89249345898689,269.41968685562665,277.91582055022235,0,8.509717774675407,192.43600418538512,11.032645078286093,18.98065622852089,-0.02067003762944198,-0.025871369450393308,0.03846452131155179,0.043520529772653783,-0.13159431670341226,-0.16418889344678844,0.1580160806929091,0.1808313813880565,8446403125488.964,0.0,-1873330018847.6,0.3940150165987652,0.3756695725293731,0.18070368590917935,-0.8191280222707008,-0.13159431670341226,-0.16418889344678844,0.1580160806929091
4.4,-61.29358323576478,29.890166501330494,269.4263298836264,277.9224219704441,0,8.546142228968263,193.01151495687571,11.032643417529092,18.980877662787545,-0.009334902173172557,-0.011634788281984488,0.03321513999878786,0.039497401425357,0.056675677281347064,0.07118290584204404,-0.026246906563819627,0.1443952553374052,8446403125488.964,0.0,-1873330018847.6,0.36314591394805684,0.4898334219234839,0.2349989969966977,-0.7569436804413567,0.056675677281347064,0.07118290584204404,-0.026246906563819627
4.5,-61.29545689207728,29.887840990582596,269.4301199930287,277.9262593461523,0,8.564232268152749,193.2984092997603,11.032642470001742,18.981003999767623,-0.018736563125045857,-0.023255107478981157,0.03790109402302746,0.045070253401906527,-0.09401660951873334,-0.1162031919699671,0.04685954024239612,0.16448455952446425,8446403125488.964,0.0,-1873330018847.6,0.38833299330878296,0.3937616932163266,0.18841282653841385,-0.8115724379616756,-0.09401660951873334,-0.1162031919699671,0.04685954024239612
4.7,-61.297337172950606,29.885517048024553,269.43622404478214,277.9323415891576,0,8.600134811205958,193.87041214631236,11.032640943988804,18.981207468159404,-0.00940140436661351,-0.011619712790214,0.030520258767126024,0.042339994535642224,0.04667579379216169,0.05817697344383574,-0.036904176279507137,0.13188136722673266,8446403125488.964,0.0,-1873330018847.6,0.36543831091400525,0.47763216887177856,0.22794162281479247,-0.7657447151392678,0.04667579379216169,0.05817697344383574,-0.036904176279507137
4.8,-61.299224016921535,29.88319471490357,269.4409515004844,277.93709097011856,0,8.61796786608781,194.1554952277253,11.032639762124878,18.981365050016148,-0.01886843970929426,-0.02322333120982742,0.04727455702266087,0.04625639625101201,-0.09467035342680782,-0.11603618419613461,0.16754298255534902,0.15309895372811386,8446403125488.964,0.0,-1873330018847.6,0.37649345237944104,0.43546427175753893,0.2072717311585975,-0.7909879757623399,-0.09467035342680782,-0.11603618419613461,0.16754298255534902
5.0,-61.30111742238176,29.88087402243159,269.44774102240336,277.9438410392524,0,8.65332848743244,194.72376135582684,11.032638064744399,18.981591367413447,-0.009467027301113254,-0.011603462359897055,0.033947609594804334,0.0448766519800286,0.04700706204090499,0.05809934424965177,-0.06663473713928261,0.1391164462828688,8446403125488.964,0.0,-1873330018847.6,0.35926704166900514,0.49330811955282533,0.23418557551758284,-0.7567902008966259,0.04700706204090499,0.05809934424965177,-0.06663473713928261
5.1,-61.30301729757868,29.878555041784157,269.45247017349755,277.94859536211317,0,8.67087919550079,195.00691914633666,11.032636882456625,18.981749005783254,-0.018998751969192606,-0.023189806474341962,0.04729151094181833,0.04930500838332981,-0.09531724668079386,-0.11586344114444948,0.1334390134701404,0.15738434302553164,8446403125488.964,0.0,-1873330018847.6,0.37495060507073,0.43561321191726426,0.20625400355014614,-0.7919043246376133,-0.09531724668079386,-0.11586344114444948,0.1334390134701404
5.3,-61.30492367061637,29.87623779409927,269.4601775174376,277.9562384957723,0,8.70566845758407,195.57122125711322,11.03263495562064,18.982005917247918,-0.009531865188456825,-0.011586238424428064,0.03853671970034608,0.04692023082477366,0.04733443390367886,0.058017840249569436,-0.04377395620736121,0.12839190549053014,8446403125488.964,0.0,-1873330018847.6,0.35248576202157306,0.5103992157041453,0.24102630250095738,-0.7464266539207863,0.04733443390367886,0.058017840249569436,-0.04377395620736121
5.4,-61.3068364294565,29.8739223804763,269.46491891862695,277.96100798350307,0,8.722921172492494,195.85234049737906,11.032633770270342,18.982163963954232,-0.01912758840134633,-0.023154136229699293,0.047414011893351676,0.057906925066830886,-0.09595723212889452,-0.11567897805271167,0.08877292193005552,0.21521593980125137,8446403125488.964,0.0,-1873330018847.6,0.37330178883829157,0.4361714005353657,0.20543245421776604,-0.7925892950066981,-0.09595723212889452,-0.11567897805271167,0.08877292193005552
5.61,-61.30875558191924,29.871608791974808,269.4736617422226,277.9696582283507,0,8.758802992017447,196.44038273173368,11.032631584564443,18.98245539140742,-0.00913882125114388,-0.01101708810235128,0.04163249331256902,0.05417441546734688,0.047565557858106906,0.057795467273085786,-0.027531040860869802,0.22982466688055458,-79121369694.02158,0.0,916726879169.399,0.3460879584278532,0.5257668071711283,0.24698041040707208,-0.7367449126960243,0.047565557858106906,0.057795467273085786,-0.027531040860869802
5.7,-61.310681045684234,29.869297139613465,269.4813794541554,277.97731633069384,0,8.774077892009492,196.69142112358423,11.03262965513646,18.982712648471846,-0.021394041833231247,-0.02568502623713841,0.08575235480887197,0.06529647726018029,-0.13616911757874872,-0.16297709038652392,0.4902206832922558,0.332340478564109,-79121369694.02158,0.0,916726879169.399,0.3502657987817466,0.5109688963419455,0.23939767782529403,-0.7476051157039629,-0.13616911757874872,-0.16297709038652392,0.4902206832922558
5.9,-61.31261281829153,29.86698743436889,269.48821142115156,277.98411739518815,0,8.807604160037084,197.24711973558604,11.032627947144713,18.982940380705053,-0.009658863036463563,-0.011548526222870937,0.034159834980869136,0.06736626346071982,0.058675893983838365,0.07068250007133729,-0.25796259914001396,0.3287118898172259,-79121369694.02158,0.0,916726879169.399,0.35461246130101287,0.4948534690629708,0.23123696266109114,-0.7588804342883365,0.058675893983838365,0.07068250007133729,-0.25796259914001396
6.0,-61.31455080714241,29.864679727174565,269.4974277107527,277.9932315337924,0,8.824259223897597,197.52382540388928,11.032625643072311,18.983247590358424,-0.019379888508837054,-0.023077071943262778,0.09216289601113237,0.06979957083803039,-0.09721025472373525,-0.11528545720391882,0.5800306103026344,0.35875943790240805,-79121369694.02158,0.0,916726879169.399,0.34198775311494406,0.5320822853083949,0.2479829327031647,-0.7337828585271843,-0.09721025472373525,-0.11528545720391882,0.5800306103026344
6.2,-61.3164949895005,29.862374088919672,269.5103759913361,278.0059652435814,0,8.85717408098797,198.07488797572614,11.032622406002165,18.983679199711204,-0.009720911790438427,-0.011528191274461353,0.06474140291714997,0.06620784119874681,0.04829488359199309,0.05774440334400707,-0.13710746546991187,0.2812143737324419,-79121369694.02158,0.0,916726879169.399,0.33014194321759377,0.563816084202362,0.26208213632264343,-0.7102328310799111,0.04829488359199309,0.05774440334400707,-0.13710746546991187
6.3,-61.3184453524926,29.860070560447998,269.51511563213575,278.0107427933767,0,8.873440672205897,198.34922038768065,11.032621221091965,18.98383718773786,-0.01950362992104722,-0.023035284716748178,0.04739640799641637,0.06995343468375716,-0.09782718130608827,-0.11507093442286866,-0.17344994920733664,0.2854241123361723,-79121369694.02158,0.0,916726879169.399,0.36874004474236205,0.43644396940718866,0.20234020618363416,-0.7953652506446722,-0.09782718130608827,-0.11507093442286866,-0.17344994920733664
6.5,-61.32040182310964,29.85776917255681,269.5296202032623,278.0249884931643,0,8.905669013504703,198.89542650167127,11.032617594949183,18.984320673442078,-0.009782353085192588,-0.011506939455934163,0.07252285563282605,0.06647432317208404,0.04860638417927311,0.05764172630407002,0.1256322381820483,0.19996288706568777,-79121369694.02158,0.0,916726879169.399,0.32562300866916627,0.5726630648175349,0.26479707557314897,-0.7042081930700153,0.04860638417927311,0.05764172630407002,0.1256322381820483
6.6,-61.32236437820766,29.855470005995716,269.5343411757234,278.0297511692658,0,8.921577115704102,199.16727592796997,11.03261641470607,18.98447803919078,-0.01962555098018022,-0.022991665610945317,0.0472097246108662,0.06439246123895671,-0.09843197894987667,-0.11484726155011195,-0.25313131021959945,0.23755661324992322,-79121369694.02158,0.0,916726879169.399,0.36739360142649113,0.4358625421155464,0.20100974766694693,-0.7966435007921149,-0.09843197894987667,-0.11484726155011195,-0.25313131021959945
6.8,-61.324332924508745,29.85317311146557,269.5499648214441,278.04508499288545,0,8.953085696251378,199.70840710895135,11.032612508794639,18.98499882738147,-0.00984273150542946,-0.0114844726507357,0.0781182286036141,0.07068487944610737,0.048914097373753754,0.05753596480104803,0.15454251996373938,0.2335235168010485,-79121369694.02158,0.0,916726879169.399,0.32235053506060984,0.5781348142680565,0.2659237680280605,-0.7008101159908701,0.048914097373753754,0.05753596480104803,0.15454251996373938
6.9,-61.32630749860197,29.850878529617344,269.5546838132865,278.04984895893017,0,8.9686212025768,199.9776648134484,11.032611329046677,18.98515612710955,-0.019745740932250906,-0.022945818482256065,0.04718991842366879,0.08998572765286457,-0.09903009426821392,-0.11461345831520303,-0.30928310179945145,0.3700834454592018,-79121369694.02158,0.0,916726879169.399,0.3658826367337599,0.4359280782010444,0.19998285422854672,-0.7975609473810134,-0.09903009426821392,-0.11461345831520303,-0.30928310179945145
7.1,-61.32828801694439,29.848586301051007,269.57195072507045,278.0667790890893,0,8.999387049293778,200.51350461616315,11.032607012318731,18.985731690835685,-0.009902591712105425,-0.011461142831681355,0.08633455891981642,0.08635688178796559,0.04921574610072758,0.057423378252873754,0.19572320248073885,0.4450860481112765,-79121369694.02158,0.0,916726879169.399,0.31860751464056897,0.5848092715126755,0.26757693302310315,-0.6963403998629717,0.04921574610072758,0.057423378252873754,0.19572320248073885
7.2,-61.33027438586195,29.846296496314416,269.5887375315929,278.0832454044456,0,9.014656719258877,200.78006289936673,11.032602815617102,18.986291251053096,-0.01986368917556536,-0.022898047365913377,0.16786806522475128,0.10760883772898491,-0.09961097463459882,-0.11436904534231962,0.8153350630493442,0.7094023756640514,-79121369694.02158,0.0,916726879169.399,0.31858054670447433,0.5833382420615084,0.266204655745893,-0.6981103149712642,-0.09961097463459882,-0.11436904534231962,0.8153350630493442
7.4,-61.332266681550486,29.844009155902196,269.5956872086481,278.0901767058621,0,9.04453269534277,201.31039699503822,11.032601078197837,18.98652290695494,-0.009961478442690455,-0.01143670206110058,0.034748385275804566,0.11709543380255186,0.049511053664374485,0.05730672652406394,-0.665598399744733,0.7189995206878141,-79121369694.02158,0.0,916726879169.399,0.3465874582501726,0.49850587659575263,0.22688712090587768,-0.7615059153744157,0.049511053664374485,0.05730672652406394,-0.665598399744733
7.5,-61.3342647300767,29.841724320254627,269.6140205330471,278.10814552684275,0,9.05941772537714,201.57414923718915,11.032596494866738,18.987134017768238,-0.019980485262110007,-0.022848356475684364,0.18333324399009207,0.11206857501791383,-0.10019006819419587,-0.11411654414583824,1.4858485871428804,0.7958617486518704,56848077590849.64,0.0,2694467758.219384,0.3152500472495545,0.5889456215277712,0.26734894777120516,-0.6944674237990219,-0.10019006819419587,-0.11411654414583824,1.4858485871428804
7.71,-61.33626855737907,29.839442059756546,269.63554188263794,278.12920664562415,0,9.09006102104583,202.1248939586155,11.03259111452934,18.987851396087933,-0.009542034773211246,-0.010867907133719056,0.1024826170992453,0.1010677677884458,0.049706907089994104,0.05704975877126338,-0.3850029851945085,0.6946769264006175,3283497856036.0005,0.0,-896106969845.1403,0.31135187886710636,0.5974632688256907,0.27049866912707926,-0.68769769516156,0.049706907089994104,0.05704975877126338,-0.3850029851945085
7.8,-61.3382781392689,29.837162414736206,269.6402773363248,278.13399610271273,0,9.10296161176407,202.35960620296817,11.03258993066592,18.98800924454416,-0.02232868766477563,-0.025329389114898227,0.052616152076249596,0.10366806250832572,-0.14207392101738225,-0.16068313312421326,-0.554071833588842,0.6932407732028889,-7.517332453772897,0.0,-0.1198215254121692,0.3611327447873585,0.4370440742770679,0.19734566384272187,-0.7997689083379803,-0.14207392101738225,-0.16068313312421326,-0.554071833588842
8.0,-61.34029337143126,29.834885415464193,269.6631922740874,278.1564114776047,0,9.13134410453992,202.87829479190856,11.032584201931478,18.988773075802914,-0.010076160811784965,-0.011384996360064282,0.11457468881303602,0.09209176149020326,0.06126263426495327,0.06972196377416967,0.30979268368393187,0.48398886886589365,-7.517332453772897,0.0,-0.1198215254121692,0.30887326517312547,0.6008388960927844,0.27059469081129434,-0.6858341201107133,0.06126263426495327,0.06972196377416967,0.30979268368393187
8.11,-61.34231427942589,29.83261115215231,269.667894577001,278.1611719397657,0,9.146631566859252,203.16184574156526,11.03258302635575,18.988929819233366,-0.018371890860309714,-0.020675121017112903,0.04274820830532526,0.08157828946000034,-0.07541572771386175,-0.08445567870044245,-0.6529680046155557,0.5600564377394195,-7.517332453772897,0.0,-0.1198215254121692,0.35991232730878375,0.4359448363790989,0.19581046286961398,-0.8012948763821987,-0.07541572771386175,-0.08445567870044245,-0.6529680046155557
8.3,-61.344340728688344,29.830339654952464,269.6920132272551,278.184757493895,0,9.172782874492476,203.64867307169013,11.032576996693185,18.989733774241838,-0.010665522433957773,-0.011955248420242526,0.12694026449516405,0.09593064198430672,0.040559833822904685,0.04589406629931746,0.4431160852096748,0.537353692843954,-7.517332453772897,0.0,-0.1198215254121692,0.30665502166609415,0.6035588961742815,0.27038448036935053,-0.6845228917364609,0.040559833822904685,0.04589406629931746,0.4431160852096748
8.41,-61.346372774530806,29.828070973955562,269.69671540817285,278.18952096111747,0,9.187587574809584,203.92879124602558,11.032575821147956,18.98989051360576,-0.018473144022382662,-0.02062437269911248,0.04274709925249993,0.11997783397837465,-0.07097837807659027,-0.078810220717,-0.7653924112969506,0.6757736705387669,-7.517332453772897,0.0,-0.1198215254121692,0.3583772305966737,0.43613080410357574,0.194859484381086,-0.8021131239722764,-0.07097837807659027,-0.078810220717,-0.7653924112969506
8.6,-61.34841024214318,29.82580514919041,269.72204610423046,278.2142847638999,0,9.212905586832859,204.40959219755445,11.032569488473943,18.990734870141015,-0.010723513749342713,-0.011925393500807758,0.13331945293478084,0.11741817572876964,0.04078752775284194,0.0457841010437092,0.47669659832779554,0.7427164605295877,-7.517332453772897,0.0,-0.1198215254121692,0.3045211592004338,0.6060836349236723,0.2700840861424827,-0.6833623325070768,0.04078752775284194,0.0457841010437092,0.47669659832779554
8.7,-61.35045318659406,29.82354224062261,269.74542970107586,278.23716254770267,0,9.226112171061768,204.6610771556343,11.03256364257473,18.991514323369195,-0.020429444508778333,-0.02262908567796992,0.23383596845406002,0.1328268149990242,-0.09705930759435655,-0.10703692177162201,1.0051651551927954,0.9345522001331081,656076057894.2372,0.0,-443323493812.9007,0.305179605537703,0.6029500184135983,0.26797419237966086,-0.6866633206145222,-0.09705930759435655,-0.10703692177162201,1.0051651551927954
8.9,-61.35250160283164,29.821282298153466,269.7524163855476,278.24414544905244,0,9.251667658909124,205.16074781199663,11.032561895903612,18.991747212851585,-0.010242081187889997,-0.011299712345724739,0.034933422358562706,0.153388482284528,0.05093681660444141,0.056646866661225606,-0.9945127304774813,0.837022375520769,13.00677437063283,0.0,-0.04166962445707441,0.33904971742185236,0.5006952566771126,0.22193393636821082,-0.7649149475237841,0.05093681660444141,0.056646866661225606,-0.9945127304774813
9.02,-61.35455532568486,29.819025381618843,269.77682524569383,278.26802039323127,0,9.266905376620768,205.45840883930293,11.032555793688577,18.992560841523126,-0.01711435711021884,-0.018807637788527985,0.2034071678854364,0.13763545818588874,-0.05726896601940741,-0.06256604535669412,1.4039478793906233,0.9555051607448337,5.039712124105414,0.0,0.07767988159095296,0.3031222939997699,0.6052872092111283,0.26758706257278164,-0.6856686030360373,-0.05726896601940741,-0.06256604535669412,1.4039478793906233
9.2,-61.35661435986426,29.81677152078813,269.8043293707909,278.29489779162355,0,9.289246533780641,205.90183946278617,11.032548917657302,18.99347764569303,-0.011439078774423548,-0.012521449059516658,0.15280069498386561,0.11909830515705108,0.03152932408775168,0.03492327071672965,-0.28114707167539366,0.8495641667291419,289748024285.931,0.0,-441865332532.3519,0.3005968006213093,0.6102775226395069,0.26907837165408827,-0.6817622303451574,0.03152932408775168,0.03492327071672965,-0.28114707167539366
9.3,-61.358678719963045,29.814520785363097,269.8089653513622,278.2996063380131,0,9.301329535281177,206.14658222417873,11.03254775866216,18.99363217837874,-0.02064360098785271,-0.02250735425032925,0.046359805712653974,0.12263017364451859,-0.09204522213429032,-0.09985905190812451,-1.0644088927121014,0.8438169051979276,360500137584.19086,0.0,-309608962.34228516,0.35438049794275994,0.43415205159223874,0.19091007434443075,-0.8059030973323627,-0.09204522213429032,-0.09985905190812451,-1.0644088927121014
9.5,-61.360748270458075,29.81227321497682,269.83742767919597,278.3274158955245,0,9.325205286370707,206.63257072314389,11.0325406430802,18.994580922639866,-0.010347752475148334,-0.011237851931387195,0.1423116391688955,0.1101124740720389,0.05147924256352207,0.05634751159471048,0.4797591672812094,0.6586591753705844,360500137583.89343,0.0,-309608962.222599,0.29877300175790417,0.6120346400396586,0.2684179271852977,-0.681248933340556,0.05147924256352207,0.05634751159471048,0.4797591672812094
9.6,-61.36282305571088,29.810028859192574,269.84209334736454,278.3321562738308,0,9.336804070075642,206.87379486130766,11.032539476663159,18.99473644491215,-0.020747852528018102,-0.02244355784245763,0.04665668168570408,0.08948045183279893,-0.10400100052869805,-0.11205705911070475,-0.9565495748319176,0.7836739433235808,240334878730.39893,0.0,-441207041637.5316,0.35255356527207476,0.43556335410485575,0.19051158333585516,-0.8060371485172024,-0.10400100052869805,-0.11205705911070475,-0.9565495748319176
9.8,-61.364902949968645,29.807787757502744,269.87040915024176,278.35982695061136,0,9.359698832486359,207.35264931030852,11.032532397712439,18.995680305008058,-0.010399471288842166,-0.011205508449147968,0.14157901438608103,0.10659765582881056,0.05174190619587941,0.056190246966548014,0.4746116635018822,0.6678806488851489,240334878738.5918,0.0,-441207041637.6502,0.2975205119197391,0.6123455400734885,0.2671238038655223,-0.6820259217563054,0.05174190619587941,0.056190246966548014,0.4746116635018822
9.91,-61.36698797736525,29.805549979327743,269.87505668352196,278.364552777322,0,9.371899067548618,207.61395197282562,11.032531235829119,18.995835222784066,-0.01895479451457576,-0.02034343795455398,0.042250302547328054,0.1284510580679925,-0.07777566568848764,-0.08307208641278235,-0.9029882894432135,0.7933650595472416,-49413145554.402084,0.0,658290894.6210086,0.3511733381684029,0.4350849413817956,0.18928760945663045,-0.8071855928153413,-0.07777566568848764,-0.08307208641278235,-0.9029882894432135
10.11,-61.369078011922234,29.803315564014913,269.90311064423724,278.3919727471987,0,9.393757670112091,208.08523338561238,11.03252422233894,18.996770354807907,-0.01045017278492825,-0.01117207656415435,0.14026980357641655,0.1252454373449889,0.04252310864823771,0.045856806951998313,0.4900975051454442,0.8256135759995666,-274008037684.32706,0.0,-881816252317.179,0.2963264167094619,0.6125030341081255,0.2657662394874256,-0.6829341065704533,0.04252310864823771,0.045856806951998313,0.4900975051454442
10.21,-61.37117298754986,29.80108456083743,269.92816403077563,278.4164852373064,0,9.404543563826579,208.31900697273568,11.032517958992306,18.997605467692523,-0.020949756276280297,-0.022310031774814516,0.25053386538388267,0.14671399335414498,-0.10499583491351898,-0.11137955210660008,1.1026406180746455,1.1535118513036022,-274008037693.0017,0.0,-881816252317.1794,0.2973709911689447,0.6083327779085973,0.26325562101678257,-0.687166794116448,-0.10499583491351898,-0.11137955210660008,1.1026406180746455
10.4,-61.37327300804808,29.79885701899324,269.93506794289914,278.4234031555113,0,9.42415913391567,208.75970075385504,11.032516233014276,18.997835598096636,-0.011052739464308813,-0.011723904443116663,0.0363363795973951,0.1626313877415249,0.05208956216827111,0.05571645964051516,-1.1273551883499375,1.0910679917287232,52575541343840.11,0.0,-197252862.32949218,0.3321603564457882,0.5006357749507715,0.21606302383034354,-0.7696428315644445,0.05208956216827111,0.05571645964051516,-1.1273551883499375
10.5,-61.37537788710764,29.796632987603946,269.959853981761,278.44765955209056,0,9.434444991005645,208.9897959256961,11.03251003650456,18.998661799392032,-0.02104879059558592,-0.022240313892929544,0.24786038861862014,0.14540376578132286,-0.09996051131277142,-0.10516409449812918,2.1152400902122577,1.1622954221390893,52575541343840.11,0.0,-197252862.32949218,0.296203872063023,0.6083770743321151,0.26186165206898465,-0.6881635537992915,-0.09996051131277142,-0.10516409449812918,2.1152400902122577
10.7,-61.37748763831091,29.794412525713746,269.9857063499236,278.472951361188,0,9.4542580720486,209.4461108084199,11.03250357341252,18.999523544997455,-0.010548756016355337,-0.011102309451001031,0.1292618408129447,0.12068119437782324,0.052500172896153094,0.05569002220964276,-0.5929927390283793,1.0233022346552443,52575541343840.11,0.0,-197252862.32949218,0.2948773820289334,0.6103498183346897,0.2620034229373399,-0.6869313176698899,0.052500172896153094,0.05569002220964276,-0.5929927390283793
10.8,-61.37960224513323,29.79219566228834,269.99026965137546,278.4776044865606,0,9.46381831028365,209.6723102387163,11.032502432587156,18.99967565504585,-0.02114606822317425,-0.022168634254064696,0.045633014518670544,0.12357178982734582,-0.10597312206818763,-0.11066324803063507,-0.8362882629427296,0.9664468081789914,52575541343840.11,0.0,-197252862.32949218,0.34729301591258477,0.4324611033953296,0.18514036508975212,-0.8112262325411257,-0.10597312206818763,-0.11066324803063507,-0.8362882629427296
11.0,-61.381721590943584,29.78998245621386,270.0158433915489,278.5026292203704,0,9.48257315403836,210.120742811271,11.032496039152113,19.00052811305163,-0.01059672905178392,-0.011066030372397546,0.1278687008672823,0.09674355054461765,0.05274669585695184,0.055513019408335945,0.41117843174306024,0.6107780123298034,52575541343840.11,0.0,-197252862.32949218,0.29370981182945266,0.6104038490103636,0.26061785300727536,-0.687909893984902,0.05274669585695184,0.055513019408335945,0.41117843174306024
11.1,-61.38384568900588,29.787772956295782,270.02031377733726,278.5071952062984,0,9.491600509133468,210.34295602326654,11.032494921555665,19.000677125911242,-0.021240980622963056,-0.022094999180772925,0.04470385788351921,0.08084378508687991,-0.10644251571179174,-0.11028968808375418,-0.8316484298376339,0.643307072545974,52575541343840.11,0.0,-197252862.32949218,0.34660484312225986,0.4288595554194393,0.18261002264117046,-0.8140013170017759,-0.10644251571179174,-0.11028968808375418,-0.8316484298376339
11.31,-61.38597444247988,29.785567231257854,270.0443962171112,278.5307771177267,0,9.51012075599029,210.80520245661052,11.032488900945722,19.00147987390371,-0.010136921304747009,-0.010503452561563644,0.11467828463791839,0.09762923995805903,0.05287647294388572,0.055197841043853495,0.33321155597332813,0.577145368171465,52575541343840.11,0.0,-197252862.32949218,0.29331827688048395,0.6083756507723271,0.2583488595919963,-0.6907237673214425,0.05287647294388572,0.055197841043853495,0.33321155597332813
11.41,-61.388107854422195,29.783365299741032,270.0484300207368,278.53492274971336,0,9.518585572674432,211.0232032194721,11.032487892494816,19.00161433402456,-0.02133411942317317,-0.0220193151682225,0.04033803625588931,0.1184080655926493,-0.11197198118426199,-0.11515862606658896,-0.7434024838202934,0.6811545274768457,52575541343840.11,0.0,-197252862.32949218,0.34935824039878755,0.40916552369870784,0.17328228189748177,-0.8249276603813371,-0.11197198118426199,-0.11515862606658896,-0.7434024838202934
11.6,-61.39024576778742,29.781167210302378,270.0746404995911,278.5605708581541,0,9.534352622539444,211.43359810560466,11.032481339875101,19.00248801665304,-0.011252175606445395,-0.011568891782388128,0.1379498887068194,0.11432340029417098,0.05306286219330421,0.05500222834649684,0.5137465918470019,0.7032934775827612,52575541343840.11,0.0,-197252862.32949218,0.29066937039883783,0.6123757089426533,0.2586468537458324,-0.6881926425473525,0.05306286219330421,0.05500222834649684,0.5137465918470019
11.7,-61.3923882354291,29.778973021414025,270.0977052665796,278.58317062904547,0,9.542478248138067,211.64757386401845,11.032475573683355,19.003256842219322,-0.02142467641682807,-0.021941888883532178,0.23064766988511648,0.1403865873869774,-0.10172500810382709,-0.10372997101144087,0.9269778117829741,1.1104251253853792,52575541343840.11,0.0,-197252862.32949218,0.29201786054096013,0.6071953072153717,0.2557609914600954,-0.6932717672515302,-0.10172500810382709,-0.10372997101144087,0.9269778117829741
11.91,-61.3945352601008,29.776782781462078,270.10410133615255,278.589610917616,0,9.558521339111604,212.09233335092716,11.032473974665962,19.003470044538417,-0.010223927008095851,-0.010429714056889925,0.030457474156805893,0.15595480645357868,0.053336901946343676,0.05481988012686765,-0.9532866463252847,1.075775772010544,52575541343840.11,0.0,-197252862.32949218,0.32774848325134526,0.4911636212890111,0.2063192205694489,-0.7802381739394214,0.053336901946343676,0.05481988012686765,-0.9532866463252847
12.0,-61.39668664445715,29.774596538745573,270.12602052432106,278.61110296301666,0,9.565338377177664,212.28102409047852,11.032468494868919,19.004200684144035,-0.02390427062606039,-0.02429158573894108,0.2435465352056734,0.13322818190245467,-0.152003817977384,-0.1540207964672353,2.3676562338763096,1.079418477589197,-120019296688410.4,0.0,-440146399812.817,0.2915388390774341,0.6053125548136928,0.253582907392226,-0.695914883712662,-0.152003817977384,-0.1540207964672353,2.3676562338763096
12.2,-61.398842451054826,29.772414341475393,270.1515384486735,278.63608566773087,0,9.57971409712487,212.696166348446,11.032462115387832,19.00505128162245,-0.010779032988388376,-0.010910986350900525,0.12758962176207023,0.13930833917337285,0.0656261881883603,0.066902996940203,-0.579784567218018,1.3751673752933515,-120019296688410.4,0.0,-440146399812.817,0.28839197958919316,0.6122834055533412,0.25580081086019546,-0.6902934466992249,0.0656261881883603,0.066902996940203,-0.579784567218018
12.4,-61.401002642353696,29.770236237773204,270.1555518283917,278.64022013134064,0,9.593123517182995,213.10549604073105,11.032461112042903,19.00518506094639,-0.010800956494350032,-0.01089051851094419,0.020066898591153296,0.14283437491481743,-0.00010961752980828109,0.00010233919978167494,-0.5376136158545818,1.6239614044003727,-120019296688410.4,0.0,-440146399812.817,0.3447689619926104,0.4090453238715044,0.17042230317964882,-0.8275098334426836,-0.00010961752980828109,0.00010233919978167494,-0.5376136158545818
12.5,-61.403167050717805,29.768062275670417,270.18168018426684,278.66579761911936,0,9.599786040553841,213.30795839382168,11.032454579953933,19.00605600614223,-0.02164408364109257,-0.021739621027876486,0.26128355875130277,0.11932835754068731,-0.10843127146742576,-0.10849102516932335,2.4121666016015033,1.2360286895654582,-120019296688410.4,0.0,-440146399812.817,0.28669997507107,0.6137319597784898,0.2550081692169649,-0.6900051010487631,-0.10843127146742576,-0.10849102516932335,2.4121666016015033
12.6,-61.405335778416415,29.7658925031071,270.1858053387151,278.6700432861355,0,9.606038736568184,213.50894039868865,11.032453548665321,19.006193511290505,-0.021687276986099922,-0.021697725633167485,0.04125154448274785,0.10392958920396392,-0.000431933450073531,0.00041895394709001867,-2.200320142685557,1.2934494935025163,-120019296688410.4,0.0,-440146399812.817,0.34203384037675955,0.4148269744869264,0.17188548480959637,-0.825461575960334,-0.000431933450073531,0.00041895394709001867,-2.200320142685557
12.8,-61.40750864762513,29.76372694793094,270.2112993157935,278.6950086350103,0,9.618144713736385,213.90642769994,11.03244717517105,19.00704331052645,-0.010864346043568616,-0.01082777588079503,0.12746988539191695,0.12492861213988164,0.054114654712656245,0.054349748761861987,0.4310917045458432,1.2752164777756763,-120019296688410.4,0.0,-440146399812.817,0.28572353239666304,0.6132307375237965,0.2534030970597196,-0.6914455842590479,0.054114654712656245,0.054349748761861987,0.4310917045458432
12.9,-61.40968573042686,29.761565697896174,270.2154377412153,278.69926998106143,0,9.623824505824299,214.10291533028746,11.032446140564696,19.00718125804051,-0.02177082801729576,-0.021612500347672002,0.04138425421786011,0.12050164910964087,-0.10906481973727183,-0.1078472446687701,-0.8608563117405715,1.013216598096304,-120019296688410.4,0.0,-440146399812.817,0.34029462729472637,0.4158017298631328,0.17134247647895556,-0.8258027874930116,-0.10906481973727183,-0.1078472446687701,-0.8608563117405715
13.1,-61.41186686881295,29.75940878066255,270.2413070423655,278.7246021348913,0,9.634782973649124,214.491334887058,11.032439673239407,19.00804356807885,-0.010905691930460686,-0.010784586168117765,0.12934650575118714,0.11723451488202104,0.054325680434175565,0.054139570897771376,0.43981125766663676,0.7811596418765838,-120019296688410.4,0.0,-440146399812.817,0.2841573330730825,0.6143215853375282,0.25245341497669477,-0.691470081142911,0.054325680434175565,0.054139570897771376,0.43981125766663676
13.2,-61.41405204468417,29.757256233794266,270.265205348316,278.7480247626488,0,9.64008225371969,214.6832495504536,11.03243369866292,19.0088401782772,-0.021851758712188106,-0.02152546868284596,0.23898305950467688,0.13615819252134082,-0.10946066781727459,-0.10740882514728232,1.0963655375349013,1.039278887058452,-120019296688410.4,0.0,-440146399812.817,0.28469566581678873,0.6112300215178817,0.25049068407722413,-0.6946946493610767,-0.10946066781727459,-0.10740882514728232,1.0963655375349013
13.4,-61.41624131985186,29.75510812475893,270.2715137898406,278.75439426783277,0,9.649684221289045,215.06244600009956,11.032432121552539,19.009050459661353,-0.010946375838471963,-0.010740545176677272,0.03154220762297638,0.1537080593127536,0.054526914368580426,0.05392461753084315,-1.037204259408497,0.9525643552891923,-120019296688410.4,0.0,-440146399812.817,0.32068770583358697,0.4910261498472589,0.2006651487151753,-0.7847204684373186,0.054526914368580426,0.05392461753084315,-1.037204259408497
13.51,-61.41843444603894,29.7529645009265,270.2958521994301,278.7782464659177,0,9.654842275225526,215.26835139763472,11.032426036950142,19.009861739981005,-0.01993751079157598,-0.019487489385738955,0.2212582689956198,0.13788358033184694,-0.08173759048276422,-0.07951767462783389,1.7246914670240399,1.0602432280977045,37663184887412.32,0.0,439930217682.5487,0.28305543076569134,0.6125179604327381,0.24962741901548605,-0.69454123199205,-0.08173759048276422,-0.07951767462783389,1.7246914670240399
13.7,-61.420631534880926,29.750825389568256,270.32213401130696,278.8039844154513,0,9.663037462910298,215.61953260223407,11.032419466497172,19.010737800376898,-0.011563625484150868,-0.011258480832858894,0.13832532566766567,0.11639448368896901,0.044073080565395446,0.0433105713309478,-0.436489175410286,0.931806111526981,-353781442839.4046,0.0,-438381596965.0513,0.28122840461181053,0.615949315901571,0.25032379680975714,-0.6919935125639762,0.044073080565395446,0.0433105713309478,-0.436489175410286
13.8,-61.42283252792714,29.748690847855734,270.32622576143996,278.8082088055158,0,9.666969318359119,215.80207290163648,11.03241844355964,19.010874192047996,-0.022009930462160952,-0.02134541712521779,0.04091750132999947,0.11956002390272583,-0.10446304978009936,-0.10086936292358752,-0.9740782433766482,0.9102896813068708,-515561568527.6815,0.0,-637250069.9294434,0.33590387868607946,0.41465018946579973,0.1680428225941397,-0.8288518651931831,-0.10446304978009936,-0.10086936292358752,-0.9740782433766482
14.0,-61.42503726664161,29.746560932859715,270.35274878755854,278.83418346309224,0,9.674426947852506,216.16237186624852,11.03241181280311,19.011758292918618,-0.011023693572340716,-0.010649574980092818,0.13261513059291066,0.10198455430989972,0.054931184449101375,0.053479210725625045,0.4584881463145576,0.6594663251428894,-515561568531.3459,0.0,-637250069.7728097,0.27974717833986434,0.61680924660756,0.249276444267067,-0.6922059836810617,0.054931184449101375,0.053479210725625045,0.4584881463145576
14.1,-61.42724583240429,29.744435671549173,270.35681252916726,278.8383834139497,0,9.677768327319374,216.34011451823014,11.032410796867708,19.01189375097224,-0.022085657626789237,-0.021252613105424777,0.040637416087179336,0.08332216486675718,-0.1106196405444856,-0.10603038125331997,-0.9197771450573166,0.7504090999295069,-515561568519.61554,0.0,-637250069.7725524,0.3345519614046664,0.41367280010773794,0.166709851079322,-0.8301551813513088,-0.1106196405444856,-0.10603038125331997,-0.9197771450573166
14.3,-61.429458046512,29.742315100790233,270.38366432756,278.8646796542034,0,9.684045763949957,216.69074666367496,11.03240408391811,19.012788810918664,-0.0110610705385738,-0.010602853794701104,0.13425899196363317,0.10188329086704953,0.055122935441076895,0.053248796553618076,0.4681078793822667,0.6662051239886394,-515561568509.89795,0.0,-637250069.9290243,0.278222716970746,0.6177902125803129,0.2482768646370807,-0.6923048255554548,0.055122935441076895,0.053248796553618076,0.4681078793822667
14.41,-61.43167400017962,29.740199297345136,270.3876846258338,278.8688401776533,0,9.687053398557447,216.88081797993723,11.032403078843542,19.012922820861128,-0.020145033341960307,-0.01923457677360907,0.03654816612559214,0.12482305579406501,-0.08258148003078686,-0.07847020889916372,-0.8882802348912866,0.7818011772369865,-161780125666.5705,0.0,437744346895.1998,0.3333464539414164,0.41192509438977637,0.1650734260308185,-0.831834492116734,-0.08258148003078686,-0.07847020889916372,-0.8882802348912866
14.6,-61.433893494541074,29.738088307871223,270.4148603689029,278.89545330542524,0,9.691885330512319,217.20444565163936,11.032396284907774,19.01382867896343,-0.011681549270816223,-0.011110470915329707,0.14303022667951718,0.12156296051317501,0.04454465300602161,0.04275845188568096,0.5604318976522384,0.8111256153013379,-161780125666.5705,0.0,437744346895.1998,0.2766991579916443,0.6187556716723428,0.247263497417874,-0.6924158848442922,0.04454465300602161,0.04275845188568096,0.5604318976522384
14.7,-61.43611656065044,29.7359821589199,270.4394904035122,278.9195995671885,0,9.694243603590284,217.37238167213866,11.032390127399122,19.014649680117074,-0.022230661093658535,-0.021061489513236685,0.2463003460928812,0.14234907093317833,-0.1054911182284235,-0.09951018597907013,1.032701194133644,1.129520345882046,-161780125666.5705,0.0,437744346895.1998,0.27743286712117393,0.6150176100486967,0.24507488468690516,-0.6962202557141054,-0.1054911182284235,-0.09951018597907013,1.032701194133644
14.9,-61.43834322948305,29.733880916935608,270.44569627825086,278.92588321737765,0,9.697932466868796,217.70326335739577,11.032388575930437,19.014856542608364,-0.011133344163063382,-0.010506209921459175,0.031029373693342965,0.15908740507279615,0.055486584652975464,0.052776397958887264,-1.0763548619976855,1.0598414087850467,-161780125666.5705,0.0,437744346895.1998,0.3135913675990883,0.49068682812198666,0.19497035808165802,-0.7892233209582872,0.055486584652975464,0.052776397958887264,-1.0763548619976855
15.0,-61.44057330193655,29.731784608254795,270.46940564356566,278.94913954491057,0,9.699684029643766,217.86619431635535,11.032382648589108,19.015646854785523,-0.022300724535000507,-0.020963086808123494,0.23709365314800918,0.1390744749955442,-0.11167380371937165,-0.10456876886664355,2.0606427945466694,1.1440419965115072,-161780125666.5705,0.0,437744346895.1998,0.2766420666429083,0.6138622328709678,0.24322549285781586,-0.6982003191364804,-0.11167380371937165,-0.10456876886664355,2.0606427945466694
15.2,-61.44280678883198,29.72969328910491,270.49515315177433,278.97437346063856,0,9.70237181946891,218.1870002605127,11.032376211712055,19.016505105059146,-0.011167434477137346,-0.010456595749417411,0.128737541043336,0.11591640618910896,0.055666450289316,0.0525324552935306,-0.5417805605233678,1.0367097479811849,-161780125666.5705,0.0,437744346895.1998,0.2747316325415408,0.617618579039722,0.24401650840795297,-0.6953601689271581,0.055666450289316,0.0525324552935306,-0.5417805605233678
15.3,-61.445043730914875,29.72760701560337,270.49829805707833,278.9776931400505,0,9.703318871113735,218.34486098772135,11.03237542548573,19.016609935235945,-0.022369420828951228,-0.020862735015434158,0.03144905303997758,0.11755890109101537,-0.11201986351813724,-0.104061392660166,-0.9728848800335704,1.0262707728852496,-161780125666.5705,0.0,437744346895.1998,0.33765176623906507,0.36200468265012237,0.14261199770385047,-0.8570914260485523,-0.11201986351813724,-0.104061392660166,-0.9728848800335704
15.5,-61.447283948856324,29.72552581375653,270.5246022155759,279.0034695008133,0,9.704813550534473,218.65546287267864,11.032368849446106,19.017486740519196,-0.011201089707242358,-0.010406009234191807,0.13152079248783413,0.09592000397832512,0.05584165560854455,0.05228362890621194,0.5003586972392845,0.7141660999421202,-161780125666.5705,0.0,437744346895.1998,0.27305789490699833,0.6189840541268641,0.24315456518734907,-0.6951071746099167,0.05584165560854455,0.05228362890621194,0.5003586972392845
15.6,-61.449527503254096,29.723449749458712,270.5275997852747,279.0066489189165,0,9.705159438312679,218.80819022595023,11.03236810005368,19.017586659509156,-0.022435543977721375,-0.020760642978174888,0.029975696987776353,0.07764687210403351,-0.11234454270479058,-0.10354633743983117,-1.0154509550005812,0.7945060492096643,-161780125666.5705,0.0,437744346895.1998,0.33762620222677003,0.352117728030727,0.13792080147322047,-0.8619741908534103,-0.11234454270479058,-0.10354633743983117,-1.0154509550005812
15.8,-61.45177418463367,29.72137882849115,270.55359412610414,279.03212754888744,0,9.705451234258522,219.1084638150948,11.032361601468473,19.018453137536806,-0.011233406897872495,-0.010354604837807757,0.12997170414735068,0.09700967548973842,0.0560106853992441,0.05203019070183538,0.499980035797869,0.7175611298670097,-161780125666.5705,0.0,437744346895.1998,0.271855256595501,0.6190116276356588,0.24177140200999106,-0.6960358564638535,0.0560106853992441,0.05203019070183538,0.499980035797869
15.91,-61.4540241434494,29.71931315652099,270.5564922999282,279.03521316056174,0,9.70515674847293,219.2706541433393,11.032360876925017,19.01854974333094,-0.020454171052105972,-0.018778836092375333,0.026347034764223252,0.11711713534057037,-0.08382512867485023,-0.07658392049606927,-0.9420424489375269,0.7840770991222258,-161780125666.5705,0.0,437744346895.1998,0.33705398132516307,0.34527304244363666,0.13445957165861333,-0.8655066512881074,-0.08382512867485023,-0.07658392049606927,-0.9420424489375269
16.1,-61.456277140085575,29.7172527291003,270.5830475705572,279.0612383371339,0,9.704293744548353,219.54582189342418,11.032354238107361,19.019434919018572,-0.01185787703248974,-0.010844354845742102,0.13976458225783878,0.11385938190075104,0.045243652734821976,0.041760427613858835,0.5969344604927093,0.8002778941636205,-161780125666.5705,0.0,437744346895.1998,0.2701815214294672,0.6203697846187419,0.24089826323568853,-0.6957810737438774,0.045243652734821976,0.041760427613858835,0.5969344604927093
16.21,-61.45853318485748,29.71519761166505,270.60848900375976,279.0861848806431,0,9.703565010561551,219.70223234012272,11.032347877749059,19.02028296679199,-0.02050949792640412,-0.018682885774978883,0.23128575638690105,0.13924985021234615,-0.0786510990355857,-0.07125937208397111,0.8320106739005704,1.169800343235276,-161780125666.5705,0.0,437744346895.1998,0.2700897180769921,0.6188934628843167,0.23962797091219448,-0.6975678184554205,-0.0786510990355857,-0.07125937208397111,0.8320106739005704
16.4,-61.46079237801252,29.713147869534122,270.6125003672751,279.09035366898377,0,9.701337766311099,219.96736217026677,11.03234687490818,19.02041667890917,-0.011890490289688888,-0.010788116478572118,0.021112439554527854,0.15735238138092805,0.04536319808797546,0.04155141734950979,-1.1061753517493458,1.1029164633875594,-161780125666.5705,0.0,437744346895.1998,0.3226501662752519,0.4144246252512012,0.15998431943604716,-0.835795499941546,0.04536319808797546,0.04155141734950979,-1.1061753517493458
16.5,-61.46305443973137,29.711103487908296,270.63810133082444,279.1154575144203,0,9.700111070216082,220.1043312027646,11.032340474667294,19.021270044360815,-0.02262061718852205,-0.02044381625825735,0.25600963549322475,0.13815133455369244,-0.10730126898833012,-0.09655699779685094,2.348971959386936,1.206618994469656,-161780125666.5705,0.0,437744346895.1998,0.268617263995859,0.619657617876796,0.23852404539851152,-0.697836285856047,-0.10730126898833012,-0.09655699779685094,2.348971959386936
16.71,-61.46531942012897,29.709064561869255,270.6649750661221,279.14179682753405,0,9.69661737315813,220.3861572640814,11.032333756233468,19.022165835537404,-0.010785620940942993,-0.009709171614484034,0.12797016808414238,0.11710681558013288,0.05635712498847148,0.05111735544653939,-0.6097117495670564,1.1337484105503424,-161780125666.5705,0.0,437744346895.1998,0.26726007410665437,0.6218514921455464,0.23866540952488072,-0.6963559411688709,0.05635712498847148,0.05111735544653939,-0.6097117495670564
16.8,-61.46758739925568,29.707031146378608,270.66760024688773,279.1446252816379,0,9.69476240686503,220.5045198979427,11.032333099938278,19.022253341562923,-0.02519976807451805,-0.022593505451635285,0.029168675173549617,0.11983062907448287,-0.16015719037305642,-0.14315926485723635,-1.0977943656732545,1.1161014276256698,-161780125666.5705,0.0,437744346895.1998,0.33501309468537543,0.3252133662149507,0.12444269651534923,-0.875509284992716,-0.16015719037305642,-0.14315926485723635,-1.0977943656732545
17.01,-61.46985809709841,29.705003246276878,270.69424834885643,279.1707483987015,0,9.690013423783132,220.775021494724,11.032326437912786,19.023141611628546,-0.01081284687015358,-0.00965666715109539,0.1268957236604923,0.09662471845924572,0.06850914859221148,0.06160399190733258,0.46536689755686794,0.7671084688780925,-161780125666.5705,0.0,437744346895.1998,0.2659837350386197,0.622031152823187,0.2373265943657224,-0.697141295017825,0.06850914859221148,0.06160399190733258,0.46536689755686794
17.11,-61.47213168358166,29.70298095628253,270.6968666497905,279.17357264867917,0,9.687343775459846,220.90102607307088,11.032325783337551,19.02322888832635,-0.022735864832484284,-0.020222899943469916,0.02618300934045748,0.0779407950762127,-0.11923017962330958,-0.10566232792374751,-1.0071271432003697,0.8612536115453711,-161780125666.5705,0.0,437744346895.1998,0.3333300495467411,0.32511988502924133,0.12367088284985189,-0.8762954131814671,-0.11923017962330958,-0.10566232792374751,-1.0071271432003697
17.3,-61.474407868568676,29.700964260990975,270.7236344294899,279.1998143615713,0,9.681944023696332,221.13542212361364,11.032319091392628,19.024121147649666,-0.011979920984304502,-0.010614185745027493,0.14088305104953658,0.09749883548260979,0.05661023077989321,0.050572179991801886,0.6036844300477807,0.7639037310036368,-161780125666.5705,0.0,437744346895.1998,0.26453224890215055,0.6227175870737477,0.2361806506051142,-0.6974698533410351,0.05661023077989321,0.050572179991801886,0.6036844300477807
17.41,-61.476686871862526,29.698953264873573,270.7260634698026,279.20245753865737,0,9.67836121181027,221.26811091169353,11.03231848413255,19.02420211566009,-0.02071821176227487,-0.018281782885474513,0.02208218466121677,0.12314057395402915,-0.07943900707245828,-0.06970542854951872,-1.0800078762574583,0.8959563868961379,-161780125666.5705,0.0,437744346895.1998,0.3337723690381487,0.30939295211579515,0.11698771551337565,-0.8827150623313825,-0.07943900707245828,-0.06970542854951872,-1.0800078762574583
17.6,-61.47896835320721,29.69694795227669,270.75296185463577,279.22882841947524,0,9.671838252821594,221.49206935496062,11.032311759536341,19.02509872848786,-0.012007796550954783,-0.010554276825695675,0.14157044649024053,0.12026179490006991,0.04584429058589488,0.04067108452515151,0.628885588573805,0.9258372068762183,-161780125666.5705,0.0,437744346895.1998,0.2630709829145454,0.6234197940509755,0.23503568527669244,-0.6977819465852709,0.04584429058589488,0.04067108452515151,0.628885588573805
17.7,-61.481252402288774,29.694948397420685,270.778374169965,279.2537596441791,0,9.66823268727574,221.6072705583609,11.032305406457509,19.0259458056655,-0.02284049081566812,-0.019995548560061565,0.2541231532922038,0.13646300114895166,-0.10832694264713569,-0.09441271734366091,1.1255270680196567,1.1689874999149477,-161780125666.5705,0.0,437744346895.1998,0.26313282131017884,0.6214004801438767,0.23357093392007652,-0.7000479843939328,-0.10832694264713569,-0.09441271734366091,1.1255270680196567
17.9,-61.48353914873647,29.69295467439896,270.7825354038452,279.2580860481658,0,9.6599671980035,221.83212031178587,11.032304366149038,19.026084513461505,-0.011433732238472811,-0.009968615108633151,0.02080616940105536,0.15685614285003763,0.05703379288597675,0.050134667257142246,-1.1665849194557463,1.041921966240435,22.211071383688957,0.0,-0.08010177753566268,0.31277936900432446,0.4244342331171007,0.15904364535279367,-0.8347034005899641,0.05703379288597675,0.050134667257142246,-1.1665849194557463
18.01,-61.485828172123746,29.690966747176954,270.80685464642,279.28195984682066,0,9.655308430259389,221.95262027996372,11.032298286338394,19.026895154880666,-0.020809303520701358,-0.018072065654579552,0.22108402340718197,0.13689675930386513,-0.08523246620207539,-0.07366773223587438,1.8207077636920106,1.1301443196167722,7.5754061773775305,0.0,0.07926538760872859,0.2623393310480813,0.6200625681759804,0.23166561280342493,-0.7021620402561409,-0.08523246620207539,-0.07366773223587438,1.8207077636920106
18.2,-61.48811964196944,29.688984719591218,270.83277208993167,279.307384629734,0,9.64654597866023,222.15543897824057,11.032291806977517,19.02775906966439,-0.012060367608918007,-0.010431724135454283,0.1364075974298614,0.11112902543045014,0.04604703111464977,0.040212323784870316,-0.44566539988063997,1.0005146720007962,7.5754061773775305,0.0,0.07926538760872859,0.2607510821778885,0.6229773435686408,0.2320450614169797,-0.7000451356985561,0.04604703111464977,0.040212323784870316,-0.44566539988063997
18.3,-61.490413637738925,29.6870086553484,270.8357792287307,279.31059550736114,0,9.641546575953903,222.25947103435806,11.032291055192816,19.027859307624357,-0.02293995769484492,-0.01976064242818126,0.030071387990346494,0.11442735472964623,-0.1087959008592676,-0.09328918292726844,-1.0633620943951338,0.9624288458796466,7.5754061773775305,0.0,0.07926538760872859,0.3218260325656299,0.35727069172210335,0.13266142091116612,-0.8667102197397388,-0.1087959008592676,-0.09328918292726844,-1.0633620943951338
18.5,-61.49270979884515,29.68503852802433,270.8610167592846,279.33536344453194,0,9.631160573543445,222.46189603116898,11.032284745810179,19.02870055864282,-0.011480805531114455,-0.009850636620356602,0.12618765276954536,0.09669514383940632,0.057295760818652536,0.049550029039123464,0.48058132389599606,0.7024706660024436,7.5754061773775305,0.0,0.07926538760872859,0.2596933739911012,0.6224080312699143,0.23042034444874282,-0.7014799063265819,0.057295760818652536,0.049550029039123464,0.48058132389599606
18.6,-61.49500839464978,29.683074461063025,270.86396658018765,279.3385210787658,0,9.625582231959704,222.56027997522926,11.032284008354953,19.028798886006257,-0.02298595804631954,-0.01964066961303218,0.029498209030407032,0.08135735473703745,-0.11505152515204921,-0.09790032992675439,-0.9668944373913695,0.7766605388402854,7.5754061773775305,0.0,0.07926538760872859,0.3206766538606238,0.3536689498535451,0.13051986473160107,-0.868935741288554,-0.11505152515204921,-0.09790032992675439,-0.9668944373913695
18.8,-61.49730902446434,29.681116417775744,270.8906227921698,279.3646670675904,0,9.614058616464888,222.75136889183602,11.032277344301956,19.02968742640566,-0.01150314907281573,-0.009790216436407241,0.13328105991064423,0.11560646264795715,0.05741404486751925,0.04925226588312487,0.5189142544011879,0.723559821212856,7.5754061773775305,0.0,0.07926538760872859,0.2575487655020165,0.6251315158356409,0.23000843016354014,-0.6999823878863847,0.05741404486751925,0.04925226588312487,0.5189142544011879
18.9,-61.4996120175513,29.67916455134003,270.89588279810465,279.37006712197945,0,9.607930057710307,222.8440653715732,11.032276029300473,19.029862759936822,-0.02302993086956966,-0.01951866435714364,0.05260005934872082,0.17710274376295665,-0.11526781796754176,-0.09728447920736605,-0.8068100056192513,1.0675649058754118,7.5754061773775305,0.0,0.07926538760872859,0.2979814879275912,0.47046785357548254,0.17255063956328479,-0.8124612657787684,-0.11526781796754176,-0.09728447920736605,-0.8068100056192513
19.1,-61.501917023125195,29.67721881479875,270.9385601030191,279.4117507636322,0,9.595425463610212,223.02374177495693,11.032265359974245,19.031285336767304,-0.01152502786947435,-0.009728682706402342,0.2133865245721692,0.24379176442946604,0.05752451500047573,0.04894990825370579,0.8039323261172304,0.9319067573351612,7.5754061773775305,0.0,0.07926538760872859,0.251238118449559,0.6402667881477552,0.23410730436534463,-0.687118343428317,0.05752451500047573,0.04894990825370579,0.8039323261172304
19.2,-61.504224080353765,29.67527925105916,270.981912714101,279.4540906777844,0,9.589110074511659,223.11071371301512,11.032254521821475,19.032730423803365,-0.023070572285704354,-0.019395637395902967,0.4335261108190117,0.29977039029775254,-0.1154554441623025,-0.09666954689500831,2.201395862468472,0.9079191914872903,7.5754061773775305,0.0,0.07926538760872859,0.2504150900891181,0.6408964832799465,0.23360975535453124,-0.6870010644666077,-0.1154554441623025,-0.09666954689500831,2.201395862468472
19.4,-61.50653344835908,29.67334613289196,271.05698944070764,279.52719483480746,0,9.575799922451477,223.27890573501014,11.032235752639822,19.03523298135692,-0.011546840026568403,-0.00966559083598998,0.3753836330332674,0.3491125497403481,0.05761866129567996,0.0486502327995651,-0.2907123889287227,0.8507683374558674,7.5754061773775305,0.0,0.07926538760872859,0.2462413236122436,0.6511509177090747,0.23656151976725237,-0.6777952052631591,0.05761866129567996,0.0486502327995651,-0.2907123889287227
19.5,-61.50884456621862,29.671419192930333,271.0982826943736,279.56754095680054,0,9.568902256951475,223.36011834377368,11.032225429326406,19.036609423145787,-0.023111178595413787,-0.01926939961627711,0.41293253665969,0.3381585781281491,-0.1156433856884522,-0.09603808780286992,0.3754890362642207,0.9921681423691325,7.5754061773775305,0.0,0.07926538760872859,0.24939959659904368,0.6402262406890947,0.23188708967039073,-0.6885772139662623,-0.1156433856884522,-0.09603808780286992,0.3754890362642207
19.7,-61.51115787296646,29.66949874366902,271.1596807888186,279.62738453890313,0,9.554338420270977,223.5167587098137,11.032210079802795,19.038656026293953,-0.011566533739184634,-0.009602246306563735,0.30699047222498277,0.3220813940361317,0.05772322428114597,0.04833576654856704,-0.529710322173538,0.7490112856955207,7.5754061773775305,0.0,0.07926538760872859,0.2458977536643667,0.6486279777006267,0.2341511318068899,-0.6811675922710696,0.05772322428114597,0.04833576654856704,-0.529710322173538
19.8,-61.51347268759431,29.66758439746338,271.1753096399552,279.64284622423935,0,9.54662900696317,223.59217950532195,11.03220617259001,19.03917698799851,-0.02314814627851514,-0.019143462056412104,0.15628851136568533,0.3113403898749451,-0.11581612539330341,-0.09541215749848234,-1.507019608592953,0.7619497111219021,7.5754061773775305,0.0,0.07926538760872859,0.261092726151887,0.5992543961316484,0.21568972986471488,-0.7253983026574816,-0.11581612539330341,-0.09541215749848234,-1.507019608592953
20.0,-61.51578957905275,29.66567666652844,271.2460833658961,279.711784665852,0,9.531055687310324,223.73720556134907,11.032188479158526,19.041536112196535,-0.011584457292208625,-0.009538654674692316,0.3538686297045514,0.31227534356355074,0.05781844493153278,0.04802403690859911,0.9879005916943339,0.7800545746485198,7.5754061773775305,0.0,0.07926538760872859,0.24376318170462405,0.6513262674415996,0.23364521670485575,-0.6795318368529715,0.05781844493153278,0.04802403690859911,0.9879005916943339
20.1,-61.51810822625224,29.663775272938008,271.2781414869612,279.7431808852541,0,9.522962541520014,223.80680437628936,11.03218046462826,19.042604716232038,-0.02318647199487567,-0.019013935904332598,0.32058121065119394,0.3347423503823647,-0.11602014702666882,-0.09475281229640146,-0.33287419053357,0.7029522034766749,7.5754061773775305,0.0,0.07926538760872859,0.24893067700281774,0.634056386471122,0.226733400149636,-0.6961307219758995,-0.11602014702666882,-0.09475281229640146,-0.33287419053357
20.3,-61.52042858806435,29.661880458623692,271.36182832568534,279.82464537324,0,9.506429765559973,223.94015811381485,11.032159542918578,19.045394277522846,-0.011601809060550791,-0.009474071571578013,0.41843419362067075,0.39574883630428637,0.05792331467162461,0.047699321663773095,0.48926491484738577,0.4815934878322764,7.5754061773775305,0.0,0.07926538760872859,0.24161369940725175,0.6540400083494774,0.23311942988440498,-0.6778715358733746,0.05792331467162461,0.047699321663773095,0.48926491484738577
20.4,-61.5227506233228,29.659992085373997,271.40369080682416,279.86555228954177,0,9.497894209975001,224.00390710958922,11.032149077298294,19.046789693560804,-0.023220352584516987,-0.018883732496953035,0.4186248113882219,0.415124475291248,-0.11618543523966443,-0.09409660925375223,0.0019061776755114185,0.3013650656343157,7.5754061773775305,0.0,0.07926538760872859,0.245027195096169,0.6421045082573771,0.22813440725443168,-0.6896507568077663,-0.11618543523966443,-0.09409660925375223,0.0019061776755114185
20.51,-61.525073950824634,29.65811033483342,271.4546631573614,279.9152950146957,0,9.488348336249008,224.0717720395872,11.032136334210659,19.048488771912044,-0.021121159107582804,-0.017106823096148416,0.4633850048838252,0.4062715686947125,0.019083577063037503,0.016153721825496098,0.4069108499600193,0.40183760399347757,1232325914232.8667,0.0,-229779928526.6622,0.24288112511415236,0.6467285255534805,0.22905235512988203,-0.6857740093559678,0.019083577063037503,0.016153721825496098,0.4069108499600193
20.7,-61.52739925933139,29.65623524850151,271.54031340651494,279.99866955691056,0,9.471331260063305,224.1834088667562,11.03211492164837,19.051343780217167,-0.012238465825027325,-0.009868875431108436,0.45079078501873876,0.5306326354481657,0.046751017276608346,0.038094461394947716,-0.06628536771098219,1.828662229011951,1232325914232.8667,0.0,-229779928526.6622,0.23941743655627723,0.6550672470087598,0.23121306921834286,-0.6783116611055858,0.046751017276608346,0.038094461394947716,-0.06628536771098219
20.9,-61.5297259075701,29.65436671773195,271.5957763857436,280.05277071699413,0,9.452386930748661,224.29326263823438,11.032101055903563,19.053192546191454,-0.011633241193571606,-0.009342653847799231,0.27731489614325355,0.5176534548121343,0.003026123157278606,0.002631107916546035,-0.8673794443774291,3.171827819672362,1232325914232.8667,0.0,-229779928526.6622,0.2409086203361518,0.6488594172999981,0.2282954501566804,-0.6847084639951498,0.003026123157278606,0.002631107916546035,-0.8673794443774291
21.0,-61.5320539342346,29.652504833731687,271.6997844287526,280.1539533237228,0,9.443416577585273,224.3452378494807,11.032075053892811,19.05665948095842,-0.023280266644931328,-0.018618840002630768,1.0400804300900142,0.4895542346616315,-0.11647025451359556,-0.09276186154831405,7.6276553394674975,3.123972336313785,1232325914232.8667,0.0,-229779928526.6622,0.23733875140540853,0.6576346558797431,0.23063380544529632,-0.676753296447882,-0.11647025451359556,-0.09276186154831405,7.6276553394674975
21.1,-61.534383547986465,29.650649697559945,271.7351389714996,280.18855640082506,0,9.433587048984613,224.39524216856668,11.032066215257124,19.057837965716654,-0.023296137518684316,-0.01855136171741352,0.3535454274702892,0.43700941729922926,-0.00015870873752987566,0.0006747828521724746,-6.865350026197152,3.3823724318327413,1232325914232.8667,0.0,-229779928526.6622,0.24290295512867194,0.6388802404403532,0.2233026757831366,-0.6949576301852698,-0.00015870873752987566,0.0006747828521724746,-6.865350026197152
21.3,-61.53671455745632,29.648801430127406,271.7998076522006,280.2515907261585,0,9.413353756789146,224.4893293283274,11.03205004808695,19.059993588406687,-0.011655047349279399,-0.009241337162695406,0.32334340350502205,0.4902200172842079,0.05820545084702479,0.04655012277359073,-0.15101011982633636,3.566788763350239,1232325914232.8667,0.0,-229779928526.6622,0.23789269237428853,0.6522295593071467,0.2272008882826271,-0.6829227081042939,0.05820545084702479,0.04655012277359073,-0.15101011982633636
21.4,-61.539046861244856,29.64695988219525,271.81840581133497,280.2699453324644,0,9.402844921386642,224.53340798736608,11.032045398547165,19.0606135270445,-0.023323037885348227,-0.018415479321554466,0.18598159134342437,0.3381023340570442,-0.11667990536069077,-0.09174142158859255,-1.3736181216160062,2.305007240426316,1232325914232.8667,0.0,-229779928526.6622,0.2495533011474044,0.6130301997051172,0.21284424582298733,-0.7187589659656293,-0.11667990536069077,-0.09174142158859255,-1.3736181216160062
21.6,-61.54138035792401,29.64512524437427,271.9271190916509,280.3756998111609,0,9.382038112473875,224.61562566862588,11.032018220227087,19.06423730305503,-0.011667483395782885,-0.009173189104902816,0.5435664015797592,0.6101303181135356,0.05827777244782588,0.046211451083257596,1.7879240511816488,3.802400420082364,-2347442936592.703,0.0,231705844767.10464,0.2343670828919001,0.6590475891000622,0.22805517944107162,-0.6772881077416297,0.05827777244782588,0.046211451083257596,1.7879240511816488
21.8,-61.54371510603809,29.643297427123983,271.9830243381707,280.43023995201384,0,9.360038138624455,224.68991180060564,11.032004243915457,19.066100811272356,-0.011673740570401533,-0.009139086251437367,0.2795262325989266,0.7749459500302109,-3.12858730932426e-05,0.00017051426732724435,-1.3202008449041678,4.800065258691445,1841464532312.964,0.0,464816816618.99347,0.23656763055409186,0.65052576246857,0.22435296952830483,-0.6859429521487482,-3.12858730932426e-05,0.00017051426732724435,-1.3202008449041678
21.9,-61.54605112410492,29.641476700751745,272.1544924981951,280.5968662279076,0,9.350226709833542,224.72407635352403,11.03196137687545,19.071816416606502,-0.023360180668277553,-0.01820726372237441,1.7146816002440712,1.0432340033769094,-0.11686440097876269,-0.09068177470937239,14.35155367645175,4.906195788168123,2892564931100.7485,0.0,232966081523.9834,0.2317987137579946,0.6629167061467124,0.22782944339367958,-0.6744661160760107,-0.11686440097876269,-0.09068177470937239,14.35155367645175
22.01,-61.54838797061693,29.639662775411857,272.2807118213085,280.71961046770525,0,9.338622115317586,224.75936147849427,11.031929822044672,19.07602372737695,-0.02124405920007766,-0.016490230362622788,1.147448391939871,1.2941680583701944,0.019237467892725787,0.015609394179559796,-5.156665530038044,5.086085020681736,1446282465550.3862,0.0,116483040761.8247,0.23182783030371445,0.6610607472328373,0.22645807790169553,-0.6767357567896829,0.019237467892725787,0.015609394179559796,-5.156665530038044
22.21,-61.55072603404237,29.637855841104635,272.58665375938295,281.0166866609767,0,9.317787581159998,224.81734819391818,11.031853336560154,19.086221791979433,-0.011690317127204294,-0.009034671536110072,1.529709690372277,1.6817874369674684,0.04776871036436699,0.037277794132563706,1.9113064921620373,5.264148065352231,0.058719177761147365,0.0,-0.2877534117282,0.2295495151084071,0.6659475266268701,0.22734313283719088,-0.6724105976595107,0.04776871036436699,0.037277794132563706,1.9113064921620373
22.31,-61.55306509282638,29.63605598767561,272.7664734665825,281.19143778611436,0,9.307399413942523,224.84335436165958,11.031808381633354,19.092215782219416,-0.02339058784009801,-0.017998534290235953,1.7981970719955982,1.8412717044434128,-0.11700270712893965,-0.08963862754126072,2.684873816233268,2.6880397810291043,0.21191021549794664,0.0,-0.2900041304399667,0.22960582130316962,0.6639112460935758,0.22586822110715202,-0.6748974520829542,-0.11700270712893965,-0.08963862754126072,2.684873816233268
22.5,-61.555404995392166,29.634263154814597,273.18788619936754,281.6005657006998,0,9.288025255769519,224.88727439718247,11.031703028450158,19.106262873312254,-0.012315276662034889,-0.00943596242638914,2.217961751500139,2.1099723467038176,0.05829111146348972,0.04506616770445661,2.2092877868659886,1.7009843072177588,0.3176897634570054,0.0,-0.2356128480853214,0.22784707738313037,0.6673151559189923,0.22625886360542424,-0.6719993442323876,0.05829111146348972,0.04506616770445661,2.2092877868659886
22.7,-61.5577456201421,29.632477392054824,273.69034931649816,282.0883674865228,0,9.267613398223489,224.92572553980804,11.031577412670876,19.123011643883274,-0.011703123749669017,-0.008928813798867483,2.512315585653093,2.4415510322893232,0.0030607645618293687,0.0025357431376082933,1.471769170764777,2.8661068495241064,0.12496682731616912,0.0,-0.12390393181405815,0.22702819758223983,0.6679289533138433,0.22570187952747753,-0.6718539814612974,0.0030607645618293687,0.0025357431376082933,1.471769170764777
22.81,-61.56008720545889,29.63069890877206,273.9643728790383,282.3545647967653,0,9.256101927167604,224.94346972623535,11.03150890678024,19.132145762634607,-0.021287139243562382,-0.016168029843299875,2.491123295819568,2.676220661540824,-0.08712741358084922,-0.06581105494938572,-0.19265718030477627,2.544826490211618,265404375382.13727,0.0,119885250277.05981,0.22684756867170933,0.6665341912177571,0.22442643845765511,-0.6737248149256764,-0.08712741358084922,-0.06581105494938572,-0.19265718030477627
22.9,-61.56242956970672,29.628927634183768,274.25124855035875,282.6332489618082,0,9.24717363829193,224.9561900051043,11.03143718786241,19.14170828501196,-0.026026269420340382,-0.019680828758813156,3.187507459116058,2.5361660774516466,-0.052657001964200076,-0.039031099061258734,7.737601814405459,3.556802062471337,530808750764.18964,0.0,239770500554.19727,0.2260796695212098,0.6669375191183003,0.22377719017759728,-0.6737997460505063,-0.052657001964200076,-0.039031099061258734,7.737601814405459
23.1,-61.56477245123236,29.62716352734821,274.84559879614056,283.21033385675975,0,9.226466544080347,224.97866237724656,11.031288600300964,19.161519959871352,-0.011714407628175938,-0.00882053417779348,2.971751228909014,3.2428538892091057,0.0715593089608212,0.05430147290509761,-1.0787811510352043,12.318603407165606,283086132396.0655,0.0,477348365868.4691,0.22479474456446108,0.668951707128559,0.22368824925347647,-0.6722607407040068,0.0715593089608212,0.05430147290509761,-1.0787811510352043
23.3,-61.56711595836632,29.625406757163613,275.1491332843781,283.5052381175748,0,9.20226010777742,224.99313866120556,11.031212716678905,19.171637776145936,-0.011717535669824072,-0.008783850922977652,1.5176724411875906,3.301136098799249,-1.564020824067208e-05,0.00018341627407913725,-7.270393938607144,15.53743431819871,283086132396.0655,0.0,477348365868.4691,0.22460378736136774,0.6676023925584877,0.22244699421613598,-0.6740753065624928,-1.564020824067208e-05,0.00018341627407913725,-7.270393938607144
23.4,-61.56946018942402,29.623657352367285,275.7537059853818,284.0923544687888,0,9.19446664599207,224.9973774103485,11.031061573503655,19.191790199512727,-0.023442310576982595,-0.017494047963282727,6.045727010037596,3.1123546304654535,-0.11724774907158772,-0.0871019704030526,45.28054568850102,15.068375998167744,283086132396.0655,0.0,477348365868.4691,0.22334058136594387,0.6694626629373738,0.22226263170773067,-0.6727094842458193,-0.11724774907158772,-0.0871019704030526,45.28054568850102
23.6,-61.57180473270686,29.621915211534787,276.31023387178107,284.6329045298879,0,9.171923870258162,224.99985518102872,11.030922441532054,19.210341129059366,-0.011722716414190704,-0.008710704162488857,2.7826394319961483,3.0800933113508173,0.05859797081395862,0.04391671900396872,-16.315437890207008,15.985377813471297,283086132396.0655,0.0,477348365868.4691,0.222694040441137,0.669552829151876,0.22152829341904243,-0.673076213026108,0.05859797081395862,0.04391671900396872,-16.315437890207008
23.7,-61.57415018650344,29.620180443079068,276.53459161852595,284.8510337392083,0,9.159901392705136,224.9980940924433,11.030866352095368,19.21781972061753,-0.023454537965790723,-0.017347684557194414,2.2435774674489064,3.31188999871499,-0.11731821551600269,-0.08636980394705741,-5.390619645472533,14.66573531865409,283086132396.0655,0.0,477348365868.4691,0.22280288900562914,0.6671823398099689,0.21992465186947466,-0.6759140075457314,-0.11731821551600269,-0.08636980394705741,-5.390619645472533
23.8,-61.57649597909061,29.618453335249615,276.81562460289035,285.12419690254916,0,9.148306213142776,224.99433309597197,11.030796093849277,19.22718748676301,-0.02345792587171014,-0.017271078294527096,2.8103298436439728,2.642453914030165,-3.3879059194163526e-05,0.0007660626266731726,5.667523761950583,5.661901894024144,283086132396.0655,0.0,477348365868.4691,0.22177562130712994,0.668313010282896,0.21948874689021902,-0.6752762279756422,-3.3879059194163526e-05,0.0007660626266731726,5.667523761950583
24.0,-61.57884231873471,29.616733536131612,277.3509620044733,285.6442907734594,0,9.124435981147034,224.98081213686774,11.03066225949888,19.245032066815778,-0.011731698220494066,-0.008598995590016787,2.676687007914618,2.76272476007104,0.05863113825608057,0.0433604135225517,-0.6682141786467756,3.084475689809862,283086132396.0655,0.0,477348365868.4691,0.22051471484433136,0.6702102910013121,0.21931965123448077,-0.6738622388555732,0.05863113825608057,0.0433604135225517,-0.6682141786467756
24.1,-61.581188913692664,29.615021463645107,277.6208081052008,285.9066375887429,0,9.11231926788499,224.9710527751641,11.0305947979737,19.254026936840027,-0.023465949579559386,-0.01712072486505154,2.698461007275303,2.8607851254297243,-0.11734251359065154,-0.08521729275034633,0.21773999360684607,3.30645058146754,283086132396.0655,0.0,477348365868.4691,0.2203559676470502,0.6686519833475177,0.2179967012907586,-0.6758884604090463,-0.11734251359065154,-0.08521729275034633,0.21773999360684607
24.3,-61.583535172213075,29.61331681554418,278.29760828932797,286.5641971996593,0,9.089057586037809,224.94553845617358,11.030425597927668,19.2765869429776,-0.01173129260205745,-0.008523240504629855,3.384000920635811,2.9587027090607654,0.05867328488750989,0.042987421802108586,3.427699566802552,2.7392531672229534,283086132396.0655,0.0,477348365868.4691,0.21897486894343984,0.6710563881973821,0.21803855865799351,-0.6739380665677168,0.05867328488750989,0.042987421802108586,3.427699566802552
24.4,-61.58588231253744,29.611619939416087,278.57099984343995,286.8300383318036,0,9.07657999510314,224.9297846328522,11.03035725003914,19.285699994781332,-0.02347140324367608,-0.016968761280935857,2.7339155411198717,3.0448515094268647,-0.11740110641618881,-0.08445520776306181,-6.500853795159532,2.955794943202912,283086132396.0655,0.0,477348365868.4691,0.21886704433578344,0.6691822044375597,0.21656066989496356,-0.6763090051318633,-0.11740110641618881,-0.08445520776306181,-6.500853795159532
24.6,-61.58822901290126,29.60993094268045,279.2310072564529,287.4714131471669,0,9.052371332556314,224.8922871593628,11.030192248185886,19.307700241881765,-0.011733501819079895,-0.008444983678188458,3.3000370650648376,3.0941678643029626,0.0586895071229801,0.04261888801373639,2.8306076197247894,3.0746061971308234,14991385400.30658,0.0,6734213756.408007,0.2174786853795274,0.671509683568128,0.21652805594919478,-0.6744578320893662,0.0586895071229801,0.04261888801373639,2.8306076197247894
24.71,-61.590576281535206,29.608249452588428,279.57281681961564,287.80376548404064,0,9.03862899354893,224.8682612775204,11.030106795795096,19.319093893987187,-0.021338805763158365,-0.015286273563833495,3.107359665115584,2.7483865290964835,-0.08732094494616836,-0.0621935444149552,-1.7516127268114043,3.679009496296184,5385799885.228697,0.0,251595942825.90973,0.21716648309808526,0.6703769461238513,0.21533974045756166,-0.6760638023915627,-0.08732094494616836,-0.0621935444149552,-1.7516127268114043
24.9,-61.59292360666619,29.6065758662219,280.13239722650997,288.34770252042955,0,9.014231019021729,224.82107954624416,11.029966900693372,19.337746574217,-0.012354342794651677,-0.008808349297520753,2.945160036285965,3.413567332936201,0.04728664720266735,0.03409433824375168,-0.8536822569980063,11.188247959691228,201564499784.1287,0.0,-256607281167.2403,0.21605521778994527,0.6717311762638599,0.21494501009474984,-0.6752007200353672,0.04728664720266735,0.03409433824375168,-0.8536822569980063
25.1,-61.59527101651857,29.60490982049263,280.4634097730513,288.66962486310257,0,8.985495933958338,224.76364584287256,11.029884147556738,19.348780325768374,-0.011737049261917154,-0.00833022864634702,1.65506273270663,3.3144676488123905,0.0030864676636725703,0.0023906032558686325,-6.450486517896582,13.877343637307238,405385492204.8002,0.0,-4741118119.7278805,0.2157085182654735,0.6707638684992601,0.21384083187625424,-0.6766223218946391,0.0030864676636725703,0.0023906032558686325,-6.450486517896582
25.2,-61.59761797931533,29.603251932141486,281.0694002574889,289.2587541057107,0,8.975355301623052,224.7319440989134,11.029732649935628,19.368980008582962,-0.023469627967572182,-0.016578883511435903,6.059904844376107,3.378146827603877,-0.11732578705655278,-0.0824865486508906,44.048421116695714,14.769120820741392,405385492204.8002,0.0,-4741118119.7278805,0.21453391017467052,0.6723382740830348,0.2135190507554748,-0.6755339085143642,-0.11732578705655278,-0.0824865486508906,44.048421116695714
25.4,-61.59996541327909,29.601601907737585,281.6303069804064,289.80414142020004,0,8.94821553070147,224.66257787119167,11.029592423254899,19.38767689934688,-0.011737169818779633,-0.008250122019504176,2.8045336145874087,3.0775083003093537,0.05866229074396295,0.04164380745965878,-16.27685614894355,16.58184969656271,405385492204.8002,0.0,-4741118119.7278805,0.21378541458866396,0.6724606225125743,0.21269458990942247,-0.675909401549066,0.05866229074396295,0.04164380745965878,-16.27685614894355
25.5,-61.60231265663336,29.59995951367754,281.9728816447214,290.13739591939026,0,8.935096251230048,224.6249164703611,11.02950677958882,19.39909605482405,-0.023472433542721327,-0.016423940600453813,3.4257466431500427,3.9664141327373086,-0.11735263723941528,-0.08173818580949521,6.212130285626253,24.607099944243227,405385492204.8002,0.0,-4741118119.7278805,0.21340565046399795,0.671589355436152,0.21162850298012922,-0.6772290179409632,-0.11735263723941528,-0.08173818580949521,6.212130285626253
25.7,-61.604660147603674,29.5983250561846,282.2612687556854,290.41800708221,0,8.904557128310831,224.54364546385537,11.029434682811079,19.408708958522848,-0.011737454851576998,-0.008172287464702806,1.4419355548201958,3.3264874364663646,0.058674893455721855,0.04125826567875518,-9.91905544164927,18.882430925649306,405385492204.8002,0.0,-4741118119.7278805,0.21278290472425052,0.6713073820330046,0.21068282459190404,-0.6779989540604626,0.058674893455721855,0.04125826567875518,-9.91905544164927
25.8,-61.60700696441866,29.596698921307883,282.8712275208833,291.0112012506113,0,8.893782090320075,224.50003947021156,11.029282193119778,19.429040917362776,-0.02346816814984687,-0.016261348767159,6.099587651978508,3.3985409899354955,-0.11730713298269704,-0.0808906130245608,46.57652097158246,16.304600353811818,405385492204.8002,0.0,-4741118119.7278805,0.21146706596512055,0.673318610098668,0.2104795296080958,-0.6764777135448411,-0.11730713298269704,-0.0808906130245608,46.57652097158246
26.01,-61.60935363531126,29.595080814921598,283.47189205023255,291.59543008480307,0,8.864007371422817,224.40203165560322,11.029132026987442,19.449063068341083,-0.011174623298092497,-0.0077052685061201305,2.860307282615578,3.3472909679091694,0.058540689770258676,0.040743239338280175,-15.42514461601389,15.07341243307063,405385492204.8002,0.0,-4741118119.7278805,0.21070050941690616,0.6735368748110457,0.20970299970534503,-0.6767407372959057,0.058540689770258676,0.040743239338280175,-15.42514461601389
26.1,-61.61170046851984,29.59347036272421,283.7567132559826,291.8726562056987,0,8.851380837055933,224.3573630475999,11.029060821686004,19.45855710853275,-0.02607592453982323,-0.01789391330429487,3.164680063889596,3.630356714930813,-0.16557001379700842,-0.11320716442416398,3.3819197919335364,13.402062590416367,243916234.05519667,0.0,254902691851.8072,0.21048777896636953,0.6719935005524111,0.2083948552340769,-0.6787423770718088,-0.16557001379700842,-0.11320716442416398,3.3819197919335364
26.2,-61.61404684228929,29.591868100237697,284.07366215271367,292.18113381051796,0,8.837259906350814,224.30585847190287,11.028981584461821,19.469122071757123,-0.02346373769448512,-0.016022624865144393,3.169488967310553,3.041855477408431,0.026121868453381665,0.018712884391505185,0.04808903420956959,4.686823398811703,243916234.05519667,0.0,254902691851.8072,0.2096053056230793,0.6725803021630473,0.2077347444837215,-0.678636595632156,0.026121868453381665,0.018712884391505185,0.04808903420956959
26.4,-61.61639308487226,29.590274262806734,284.6451221573353,292.73710013543206,0,8.80809645155065,224.19694427119282,11.028838719460666,19.488170738577843,-0.011731212914831743,-0.00796918715481712,2.8573000231082903,3.063620586987966,0.0586626238982671,0.04026718855163651,-1.560944721011318,1.7901858658190914,243916234.05519667,0.0,254902691851.8072,0.20836733004198912,0.6741885728196111,0.2073356801769774,-0.677543164511442,0.0586626238982671,0.04026718855163651,-1.560944721011318
26.5,-61.61873856453021,29.588688135597913,284.9608242890851,293.04441777209206,0,8.793669325470615,224.13953948679304,11.028759793927728,19.498694142969505,-0.023454796579542525,-0.015861272088208752,3.157021317497834,2.7219630929802507,-0.11723583664710616,-0.0789208493339152,2.997212943895395,2.625262549119907,243916234.05519667,0.0,254902691851.8072,0.20806878955078786,0.6730474163528255,0.206211047085185,-0.6791108585611687,-0.11723583664710616,-0.0789208493339152,2.997212943895395
26.7,-61.62108387953461,29.587110513599008,285.55465056952715,293.62222931671454,0,8.764157845355884,224.018847306362,11.028611337357617,19.518488352317572,-0.011726575021988636,-0.007888109994524967,2.969131402210234,3.259697277718959,0.05864110778776965,0.03986581046841907,-0.939449576438004,11.417214625113266,243916234.05519667,0.0,254902691851.8072,0.20680068953116257,0.6747286482513996,0.20581868237188258,-0.6779479301723526,0.05864110778776965,0.03986581046841907,-0.939449576438004
26.9,-61.62342883816802,29.58554066161816,285.84594702254924,293.90586354686945,0,8.731257634545745,223.89032966901024,11.028538513244362,19.528198234084975,-0.0117247931670406,-0.007849259904233491,1.4564822651104288,3.270264362417298,8.909274740176475e-06,0.00019425045145737908,-7.563245685499053,17.001070966036025,243916234.05519667,0.0,254902691851.8072,0.20655461613362802,0.6732832548988505,0.20456331630076172,-0.6798372590927432,8.909274740176475e-06,0.00019425045145737908,-7.563245685499053
27.0,-61.625773428725324,29.583979444283123,286.4317689743622,294.4759855543925,0,8.719077450211282,223.82314338951878,11.02839205775641,19.54772563247874,-0.023445905573069248,-0.015612173350376457,5.858219518129802,3.222650189573497,-0.1172111240602848,-0.07762913446142856,44.01737253019311,16.417682020856365,243916234.05519667,0.0,254902691851.8072,0.2052157055393956,0.6751928801706528,0.20423133299758506,-0.6784472355230405,-0.1172111240602848,-0.07762913446142856,44.01737253019311
27.1,-61.62811728951479,29.58242602604051,286.7227724534966,294.7593815532526,0,8.703863605886283,223.75400942197925,11.028319306886626,19.557425748449887,-0.023438607894661012,-0.015534182426151013,2.910034791343564,3.210883411173436,7.297678408235593e-05,0.0007799092422544334,-29.481847267861962,16.262351322509556,243916234.05519667,0.0,254902691851.8072,0.2049745552810754,0.6737643620847872,0.2030035007602248,-0.6803062507069141,7.297678408235593e-05,0.0007799092422544334,-29.481847267861962
27.3,-61.63046079885922,29.58088128115501,287.3065811908001,295.3276381092622,0,8.673204767092841,223.60991079962054,11.0281733547023,19.57688603969334,-0.011717546722138691,-0.0077237244274997174,2.9190436865175786,3.4958367322989536,0.05860530586261181,0.03905228999325661,0.045044475870073146,14.781840721735637,243916234.05519667,0.0,254902691851.8072,0.20363045958632708,0.6756682414925134,0.20265380181288362,-0.6789245171430034,0.05860530586261181,0.03905228999325661,0.045044475870073146
27.4,-61.63280333509713,29.57934439370866,287.5976008194355,295.61109596698117,0,8.65774556599126,223.5349525491609,11.02810059979514,19.586586693981186,-0.023425362379115244,-0.015368874463490884,2.9101962863541697,2.9034606324645953,-0.11707815656976803,-0.0764515003599133,-0.08847400163409092,5.993411190606719,243916234.05519667,0.0,254902691851.8072,0.20338631539246285,0.6742473495163602,0.20143770549379036,-0.680769688798376,-0.11707815656976803,-0.0764515003599133,-0.08847400163409092
27.6,-61.635145706583835,29.577816157600083,288.1738574748772,296.17209613141387,0,8.626536653598883,223.37923482686017,11.027956535631281,19.605795249162572,-0.01171185743352493,-0.007641180542883211,2.88128327720837,2.892609335114685,0.05856752472795074,0.038638469603037816,-0.14456504572899725,0.18286043141394462,10484144971.425781,0.0,128528609681.29922,0.20203749992285389,0.6761275542252637,0.20105930460998186,-0.6794170553290786,0.05856752472795074,0.038638469603037816,-0.14456504572899725
27.8,-61.63748743169265,29.576295966543743,288.75313209490827,296.73609223451774,0,8.595060011551368,223.2158053548394,11.027811716976272,19.625104403163608,-0.011708625544066861,-0.007600955281699156,2.8963731001553685,2.889129042858026,1.615944729034541e-05,0.00020112630592027532,0.07544911473499365,0.2576698789967651,18195230847.58828,0.0,259076912144.69922,0.20125712069511442,0.676368493062814,0.20028947261154323,-0.6796361968895125,1.615944729034541e-05,0.00020112630592027532,0.07544911473499365
27.9,-61.63982763881598,29.574783984069178,289.0387099196172,297.014329672903,0,8.579174033712953,223.13120773855115,11.027740322520096,19.63462366398724,-0.023402071233320998,-0.015119824745646649,2.8557782470892943,2.8772480358559873,-0.11693445689254386,-0.07518869463947654,-0.4059485306607511,0.27710628424637285,18195230847.58828,0.0,259076912144.69922,0.2010099863461963,0.6749058163720288,0.19905845837638977,-0.6815224534563203,-0.11693445689254386,-0.07518869463947654,-0.4059485306607511
28.0,-61.642166806366454,29.573280413520305,289.3288641913941,297.2970354666907,0,8.56326494222575,223.0446931867965,11.02766778395215,19.64429547304647,-0.023391675504739973,-0.015035705488734905,2.9015427177688067,2.582664316375207,0.00010395728581025073,0.0008411925691174298,0.45764470679511743,1.6875295543777333,18195230847.58828,0.0,259076912144.69922,0.20019603465873959,0.6751968821238403,0.1982866278312336,-0.6816987100622088,0.00010395728581025073,0.0008411925691174298,0.45764470679511743
28.2,-61.644505922778116,29.571785188054633,289.89904265492737,297.85229648588455,0,8.531146354983381,222.8659287422218,11.027525239336267,19.663301421830912,-0.011695582058308715,-0.007476127328356368,2.850892317666488,3.108588989407049,0.0584804672321565,0.03779789080189282,-0.25325200051159324,9.907746745093585,18195230847.58828,0.0,259076912144.69922,0.19887143664305967,0.6770516684287983,0.19790549617954437,-0.6803562335624144,0.0584804672321565,0.03779789080189282,-0.25325200051159324
28.4,-61.64684316650755,29.57029842064258,290.1807087571993,298.1267843651629,0,8.495889790185657,222.67954380099016,11.0274548228107,19.672690291906644,-0.011686218647177823,-0.007433837060268926,1.4083305113595708,3.0465364695197863,4.681705565445799e-05,0.0002114513404372127,-7.212809031534613,12.802307007418161,18195230847.58828,0.0,259076912144.69922,0.19860886652174686,0.6755780910333422,0.19666524748182743,-0.6822547482338277,4.681705565445799e-05,0.0002114513404372127,-7.212809031534613
28.5,-61.64918023603486,29.56881980406671,290.73330484748254,298.6650148174702,0,8.482289073159915,222.58350394593364,11.027316673788128,19.69111016158275,-0.02337069527307245,-0.014786165758699855,5.525960902832516,2.9352830507205474,-0.1168447662589446,-0.07352328698430825,41.17630391472886,13.112452132677458,18195230847.58828,0.0,259076912144.69922,0.1972984543190348,0.6774649209599589,0.1963135196517545,-0.6808638650963763,-0.1168447662589446,-0.07352328698430825,41.17630391472886
28.7,-61.65151601986511,29.567349430921045,291.2424276773347,299.1609754953099,0,8.448956378632584,222.3857508088605,11.027189393080667,19.708080922577825,-0.011678919151272324,-0.007351865728324495,2.5456141492608797,2.808243052660466,0.05845888060900084,0.03717150015187693,-14.901733767858234,13.319305124345778,18195230847.58828,0.0,259076912144.69922,0.1965645980403826,0.6775459120480816,0.19550187253917176,-0.6812289730317066,0.05845888060900084,0.03717150015187693,-14.901733767858234
28.8,-61.65384968652923,29.565888013610294,291.47695240059505,299.3896335812936,0,8.432008223328172,222.28404631583962,11.027130761899851,19.715898413353166,-0.023336666641142423,-0.01461417310750314,2.3452472326033225,2.9332317620107267,-0.11657747489869934,-0.07262307379178541,-2.003669166575544,12.059522031599581,18195230847.58828,0.0,259076912144.69922,0.19638063155213087,0.6756179984782638,0.1940885103051428,-0.6835968240497768,-0.11657747489869934,-0.07262307379178541,-2.003669166575544
28.9,-61.656182014585156,29.564435154349205,291.69850797337904,299.6056744464411,0,8.414878653080097,222.1804625388317,11.027075373006655,19.723283599112634,-0.023323280559282508,-0.01452859261089432,2.215555727839889,2.0215704333210143,0.00013386081859915612,0.0008558049660882189,-1.2969150476343627,4.889884122245734,18195230847.58828,0.0,259076912144.69922,0.19563057716869978,0.6756223455051286,0.19321932829177194,-0.684053663615119,0.00013386081859915612,0.0008558049660882189,-1.2969150476343627
29.1,-61.65851353261909,29.562989935161788,292.1051671540734,300.0019522320943,0,8.380107565583263,221.96767563099903,11.02697370821148,19.736838905135777,-0.011657590169668998,-0.007226095937085017,2.0332959034717812,2.2349783336887166,0.05832845194806672,0.036512483369045994,-0.9112991218405256,7.199497543921515,530814564486.02576,0.0,793920014185.6492,0.19433015850283655,0.6777677931335858,0.1930237315874872,-0.6823550740861629,0.05832845194806672,0.036512483369045994,-0.9112991218405256
29.3,-61.660842779246536,29.56155406788067,292.2986925033311,300.19072379124594,0,8.34302152353511,221.74742791358565,11.026925326874167,19.74328975011104,-0.011646233137234716,-0.007179336405585016,0.9676267462884914,2.131258000324585,5.678516217141382e-05,0.0002337976575000084,-5.328345785916468,8.583707196937578,530814564486.02576,0.0,793920014185.6492,0.19419718754475673,0.6754776954313441,0.19147084116242147,-0.6850957979064107,5.678516217141382e-05,0.0002337976575000084,-5.328345785916468
29.4,-61.66317098311345,29.560125924146337,292.659951284066,300.542833529492,0,8.3270594822842,221.63451843546756,11.026835012178983,19.755331709468866,-0.02328203866916617,-0.014281437343335616,3.612587807348936,2.100814671082618,-0.116358055319317,-0.07102100937750752,26.44961061060501,8.798248589533321,530814564486.02576,0.0,793920014185.6492,0.1928128260689732,0.6779387561014726,0.1913605613186993,-0.6830837376564284,-0.116358055319317,-0.07102100937750752,26.44961061060501
29.6,-61.66549699289742,29.558706155406483,293.0253025614475,300.89895076286086,0,8.291445561402941,221.40315333108774,11.026743674359638,19.767510085381584,-0.011630048919819393,-0.007098843699271284,1.8267563869076493,1.859906805335871,0.05825994874673305,0.035912968220321154,-8.929157102206307,9.850183562222632,530814564486.02576,0.0,793920014185.6492,0.19205205493763944,0.6781834895800033,0.19062492001644346,-0.6832607866137526,0.05825994874673305,0.035912968220321154,-8.929157102206307
29.7,-61.6678211773087,29.557296312915273,293.23163560289436,301.10022592557885,0,8.273820013931235,221.28470798768143,11.026692091099276,19.77438785342981,-0.023241844112860618,-0.014098424912099306,2.06333041446844,2.3852674518467567,-0.11611795193041473,-0.06999581212828171,2.365740275607959,14.316046188399445,530814564486.02576,0.0,793920014185.6492,0.19164786134349462,0.676490552148425,0.18913960321817017,-0.6854617717939175,-0.11611795193041473,-0.06999581212828171,2.365740275607959
29.9,-61.670143655091465,29.555895407732717,293.39737397806874,301.26197342017656,0,8.235999163953377,221.04231803929207,11.026650656505483,19.779912465935624,-0.011612388913810931,-0.007004525912783802,0.8286918758719283,2.0541611117184724,0.05814727599524864,0.035469494996577644,-6.173192692982581,10.663422003277432,530814564486.02576,0.0,793920014185.6492,0.19109401659610914,0.6756312287505583,0.18799238749216207,-0.6867782624713551,0.05814727599524864,0.035469494996577644,-6.173192692982581
30.0,-61.67246372502485,29.5545019207239,293.7568164588709,301.6123813468992,0,8.219808180708444,220.91838420715567,11.026560795885281,19.791893881962363,-0.023200699333827072,-0.013934870088156772,3.5944248080215346,2.0218624681134623,-0.11588310420015976,-0.06930344175372871,27.65732932149567,9.462189145223281,530814564486.02576,0.0,793920014185.6492,0.18961636462740256,0.6788360688409143,0.18819404154224265,-0.6839665405808227,-0.11588310420015976,-0.06930344175372871,27.65732932149567
30.2,-61.67478151592409,29.553117402558378,294.1482390194317,301.9939601076139,0,8.184068900255577,220.6650663675043,11.02646294024514,19.804941300647723,-0.011588954496204493,-0.006922590827613841,1.9571128028039266,1.936058654852771,0.0580587241881131,0.03506139630271478,-8.186560026088069,9.049918268078624,530814564486.02576,0.0,793920014185.6492,0.18873174800679182,0.679278786985798,0.18743446689673474,-0.6839802463993682,0.0580587241881131,0.03506139630271478,-8.186560026088069
30.3,-61.677097976641704,29.551743293709453,294.31474863610697,302.15648464206816,0,8.165869863734368,220.53569361851822,11.026421312840974,19.810491621203564,-0.023164607176155653,-0.013741088489247292,1.6650961667528226,2.0434679081258347,-0.11575652679950996,-0.06818497661633353,-2.9201663605109993,8.084028333601832,530814564486.02576,0.0,793920014185.6492,0.1885459679774697,0.6763840558696435,0.1855208301430925,-0.6874133025391551,-0.11575652679950996,-0.06818497661633353,-2.9201663605109993
30.4,-61.67941250606856,29.550378214453538,294.4781755874701,302.3160112813013,0,8.147617728507905,220.40451928982168,11.026380456103132,19.815939186249004,-0.02314529426854555,-0.013650792559154759,1.6342695136313872,1.4444241159395685,0.00019312907610102566,0.0009029593009253509,-0.30826653121436054,4.086873965041876,530814564486.02576,0.0,793920014185.6492,0.18770312223802763,0.6765258749652288,0.184642242979154,-0.6877408818096061,0.00019312907610102566,0.0009029593009253509,-0.30826653121436054
30.6,-61.68172409313504,29.549020854869436,294.7513322543057,302.58243106015135,0,8.110517626063595,220.13678929290208,11.026312166936423,19.825044408476856,-0.011557935332397852,-0.0067867979205081955,1.3657833341778576,1.165377674953347,0.05793679468073767,0.03431997319323233,-1.3424308972676289,2.487131662416481,530814564486.02576,0.0,793920014185.6492,0.18643108831002092,0.6789789431861627,0.18461050853374988,-0.6856748530901897,0.05793679468073767,0.03431997319323233,-1.3424308972676289
30.7,-61.684034636812136,29.547673814837744,294.81120331960204,302.6410923184346,0,8.091175055477708,220.00024552374597,11.026297199170099,19.827040110653403,-0.023105436770976477,-0.013470400316926433,0.5987106529636449,0.8436351710419745,-0.11547501438578871,-0.06683602396418381,-7.6707268121422905,2.40924997461748,530814564486.02576,0.0,793920014185.6492,0.1885259715196443,0.6672189942585153,0.180292236307513,-0.6976901040508354,-0.11547501438578871,-0.06683602396418381,-7.6707268121422905
30.91,-61.68634218611262,29.546335644040152,294.92917786854395,302.7563553759156,0,8.050433925457158,219.70772426727808,11.026267705532863,19.83097259561813,-0.010988330002297536,-0.006372241893293721,0.561783566390007,0.5644605384646442,0.05770050842228044,0.03380075439825087,-0.1758432693982748,2.7128006946410843,530814564486.02576,0.0,793920014185.6492,0.18573179504086965,0.6750750614833407,0.18157974097979776,-0.690511520063112,0.05770050842228044,0.03380075439825087,-0.1758432693982748
31.11,-61.68864872009212,29.545007231958778,294.9401807885052,302.767414159456,0,8.010577571516478,219.42189622015724,11.026264954802873,19.83133935961684,-0.01153266989749828,-0.006642060406871787,0.055014599806213677,0.3417218624669567,-0.0027216994760037245,-0.0013490925678903355,-2.5338448329189758,2.47421326893613,9.154077678037776,0.0,0.354963043733217,0.20299028804204988,0.5974268718659496,0.15973989020860477,-0.759183273794421,-0.0027216994760037245,-0.0013490925678903355,-2.5338448329189758
31.21,-61.69095152785027,29.54368801787556,294.9638944690409,302.7908552820785,0,7.990821341109457,219.27635088452203,11.02625902638274,19.832129815634694,-0.023028077581485847,-0.013192140832174272,0.23713680535706436,0.28149125809615727,-0.11495407683987403,-0.06550080425302392,1.8212220555084808,0.9899653368184911,8.306775705400593,0.0,0.3524259954417702,0.19171007890849354,0.6442003370712865,0.17145172281996623,-0.7203176230692996,-0.11495407683987403,-0.06550080425302392,1.8212220555084808
31.3,-61.693253718531835,29.542378540871574,294.9864334018795,302.81315291016136,0,7.973049121891111,219.1438674006834,11.02625339164953,19.832881113395985,-0.02557989646187294,-0.014549744488729451,0.25043258709539906,0.23309089693875124,-0.0283535431154122,-0.015084485072835345,0.14773090820371917,1.0018560919964528,8.306775705400593,0.0,0.3524259954417702,0.19107260865228096,0.6424708853513074,0.16993437330706113,-0.7223882117445274,-0.0283535431154122,-0.015084485072835345,0.14773090820371917
31.5,-61.6955513113278,29.541078509826413,295.04600588091466,302.87152714874526,0,7.933645564074849,218.8444214991993,11.026238498529771,19.834866862697154,-0.011487963979810487,-0.006500155225808181,0.2978623951759129,0.39873026588255117,0.07045966241031253,0.0402479463146065,0.23714904040257,1.0611036943150711,8.306775705400593,0.0,0.3524259954417702,0.1839859457585936,0.6684938789423084,0.17601337091195884,-0.6987734960916816,0.07045966241031253,0.0402479463146065,0.23714904040257
31.6,-61.697848775476565,29.539787823417534,295.077889702197,302.9029293342606,0,7.913966283155863,218.6921055835275,11.02623052757445,19.8359296567399,-0.022974641487678256,-0.012906864088790642,0.3188382128234889,0.37322419183320676,-0.11486677507867606,-0.0640670886298237,0.20975817647575704,1.690912188984571,8.306775705400593,0.0,0.3524259954417702,0.18622260621043077,0.6552975560372009,0.17146632629994515,-0.7116920351760775,-0.11486677507867606,-0.0640670886298237,0.20975817647575704
31.8,-61.700142160264924,29.538506660119648,295.2548298639261,303.0756431590681,0,7.87575248962879,218.38232166987942,11.026186292534017,19.841827662130868,-0.01146692394179642,-0.006405816489429861,0.8847008086453942,0.3572021442263102,0.05753858772940938,0.03250523799680402,2.829312979109537,2.221998715387005,8.306775705400593,0.0,0.3524259954417702,0.17949322822434882,0.6791923263188688,0.17684813072279018,-0.6893509291725224,0.05753858772940938,0.03250523799680402,2.829312979109537
32.0,-61.70243292502939,29.537235928204062,295.23276746644075,303.0544926593889,0,7.835579387809247,218.06571433346755,11.02619180813339,19.84109224888136,-0.011453823822336102,-0.0063536595779290165,-0.11031198742671261,0.31037171191720664,6.550059730159342e-05,0.0002607845575042243,-4.975063980360552,2.628850317386781,8.306775705400593,0.0,0.3524259954417702,0.18730580027833496,-0.6429331882526749,-0.16638150089165635,-0.7237890913701193,6.550059730159342e-05,0.0002607845575042243,-4.975063980360552
32.1,-61.70472377915711,29.535973435738097,295.24977201221134,303.071401713724,0,7.815789707880017,217.90486942364905,11.026187556996947,19.84165906707371,-0.022908541277217538,-0.01262492465965419,0.17004545770589388,0.25762788814888593,-0.11454717454881273,-0.06271265081725085,2.8035744513260252,2.6879964025207714,8.306775705400593,0.0,0.3524259954417702,0.18912508974251288,0.6305986904788784,0.16225759674380902,-0.7350166421892321,-0.11454717454881273,-0.06271265081725085,2.8035744513260252
32.2,-61.70701177208711,29.5347204005844,295.24392750582984,303.0660517775769,0,7.795785208116568,217.74233985920674,11.026189018123542,19.841464250194328,-0.02287992929993233,-0.012530351536952188,-0.058445063814928366,0.13768351639705295,0.00028611977285208516,0.0009457312270200057,-2.28490521520819,2.479428191224522,8.306775705400593,0.0,0.3524259954417702,0.20797657110664572,-0.5272602952408867,-0.13492445460381355,-0.8127347159332367,0.00028611977285208516,0.0009457312270200057,-2.28490521520819
32.41,-61.70929623331135,29.533477650400428,295.25544075400126,303.0776119058893,0,7.754066994823455,217.39557644805382,11.0261861398115,19.841848025133373,-0.010878386782106546,-0.0059178580189198395,0.05482499129243642,0.25083653659093386,0.05715020246583876,0.03148806437158355,0.5393812147969913,2.2680128129190016,8.306775705400593,0.0,0.3524259954417702,0.19258338710498543,0.6050946717496051,0.15393449260179443,-0.7570179979490825,0.05715020246583876,0.03148806437158355,0.5393812147969913
32.6,-61.71157991237583,29.532243552637738,295.20133846553375,303.0252509880595,0,7.715751672871702,217.07552064172225,11.026199665383617,19.84004461551779,-0.012019363497279294,-0.006495251382581766,-0.2847488866710687,0.22165745085459107,-0.006005140606172203,-0.003038912440325853,-1.7872309366499812,3.0512457160946753,8.306775705400593,0.0,0.3524259954417702,0.17748512480047135,-0.6688931773126087,-0.16917364457128517,-0.7017558163646902,-0.006005140606172203,-0.003038912440325853,-1.7872309366499812
32.7,-61.7138598688818,29.531019654541463,295.1337027513293,302.9597070923176,0,7.6952274989805325,216.90467764296184,11.026216574312167,19.837790091710975,-0.022799565059656534,-0.012238980962741945,-0.6763571420446982,0.24479064065183104,-0.10780201562377087,-0.05743729580160097,-3.91608255373624,2.769870535513826,8.306775705400593,0.0,0.3524259954417702,0.1756899614314985,-0.6725255984429757,-0.16909674282699486,-0.6987479148136451,-0.10780201562377087,-0.05743729580160097,-3.91608255373624
32.8,-61.7161391524867,29.529804453149644,295.13329482437376,302.95965555964887,0,7.675401213701284,216.732194442381,11.026216676293906,19.837776494145793,-0.02279283604899392,-0.012152013918190343,-0.004079269555177466,0.2666971395449146,6.729010662613993e-05,0.0008696704455160723,6.72277872489559,3.0056544022082003,8.306775705400593,0.0,0.3524259954417702,0.24172339029408862,-0.07590254674871617,-0.018969899302843075,-0.9671859949886737,6.729010662613993e-05,0.0008696704455160723,6.72277872489559
33.0,-61.71841542290547,29.52860078529269,295.0974534997271,302.92508666116635,0,7.635483146710776,216.38233817188154,11.026225636625067,19.836581783324235,-0.011381352093877533,-0.0060183392847789315,-0.17920662323319647,0.2396541652620602,0.057057419775581125,0.03066837316705662,-0.8756367683900826,2.6916644992634415,8.306775705400593,0.0,0.3524259954417702,0.1762781150171416,-0.6612509565364324,-0.1640682232981144,-0.7104609889004861,0.057057419775581125,0.03066837316705662,-0.8756367683900826
33.2,-61.720690049911475,29.527405347592754,295.1305014945133,302.9576276630136,0,7.596380165263412,216.02601402597276,11.026217374626372,19.837683383150445,-0.011373135030012643,-0.005977188499670575,0.1652399739307929,0.16176221616756517,4.108531932445145e-05,0.0002057539255417778,1.7222329858199226,2.048108148654667,8.306775705400593,0.0,0.3524259954417702,0.17585746815083309,0.6593661476731019,0.1627145544044067,-0.7126250121791176,4.108531932445145e-05,0.0002057539255417778,1.7222329858199226
33.3,-61.72296192333776,29.52622230646315,295.14526712790916,302.9723593667999,0,7.576863344193286,215.8454462506239,11.026213683218023,19.838175570930304,-0.022718734262882248,-0.011830411296039463,0.14765633395882943,0.2213168750274419,-0.1134559923287025,-0.0585322279636922,-0.17583639971964465,0.7716501359207976,8.306775705400593,0.0,0.3524259954417702,0.18191499341009612,0.6253861786406081,0.15307448518552397,-0.7432141445929894,-0.1134559923287025,-0.0585322279636922,-0.17583639971964465
33.5,-61.72523126307805,29.525046518107782,295.20268872113536,303.0286454686494,0,7.538222943864554,215.4795394208042,11.026199327819716,19.840089624037844,-0.011346698701437513,-0.005878941776842256,0.28710796613097095,0.3416318218373261,0.05686017780722287,0.02975734759598561,0.6972581608606977,3.049018557786143,8.306775705400593,0.0,0.3524259954417702,0.1710886456734876,0.6715563166135583,0.16364283248502975,-0.7021123929360018,0.05686017780722287,0.02975734759598561,0.6972581608606977
33.61,-61.72749787908788,29.52388343852054,295.23822909744433,303.063616437703,0,7.517079859648817,215.27559793865814,11.026190442725639,19.841274303248145,-0.020605600089334698,-0.010573450793122666,0.32309433008157035,0.4600165836321152,-0.08417183079906575,-0.0426773546934585,0.32714876318726893,4.242939833928413,8.306775705400593,0.0,0.3524259954417702,0.17188813570173203,0.662305200341372,0.1600078831458928,-0.7114799840732894,-0.08417183079906575,-0.0426773546934585,0.32714876318726893
33.7,-61.72976179138581,29.522726783484774,295.1679631821102,302.99551378960894,0,7.498826588273335,215.10732521075317,11.026208009204472,19.83893210607034,-0.025154581088156956,-0.012851722619602083,-0.7807323926012898,0.5405244233601236,-0.0505442333202454,-0.025314131405325888,-12.264741363142427,5.509293690878262,-174626012452133.16,0.0,-89370160016.71194,0.16841290460487743,-0.6749355689344583,-0.16242979574330368,-0.6997968510964138,-0.0505442333202454,-0.025314131405325888,-12.264741363142427
33.9,-61.73202309005434,29.52158363857266,295.31947450241734,303.1434620698658,0,7.4614737364549,214.72886979090566,11.026170131374395,19.84398248341391,-0.011306493342644571,-0.005715724560566692,0.7575566015356278,0.7258581762745808,0.0692404387275634,0.03567999029517771,7.691444970684752,6.6925776292566255,-87412652201988.77,0.0,-301246145588.08655,0.16534249391174424,0.6820560304987618,0.16260048456030923,-0.6935578659261746,0.0692404387275634,0.03567999029517771,7.691444970684752
34.1,-61.73428154524107,29.52044642914472,295.20902328764936,303.0362118719989,0,7.421697941132948,214.3442404412284,11.026197744178088,19.840300776254978,-0.011292275933634082,-0.005686047139707914,-0.5522560738398773,0.7851516874950806,7.108704505244432e-05,0.00014838710429388807,-6.549063376877432,8.458586197191078,-87412652201988.77,0.0,-301246145588.08655,0.16529087319542168,-0.6800425261636923,-0.16155010454122706,-0.6957892307084936,7.108704505244432e-05,0.00014838710429388807,-6.549063376877432
34.2,-61.736538317159955,29.51932245034917,295.08764336907757,302.9183187435678,0,7.401227093044527,214.14963186814148,11.02622808915773,19.836254778969252,-0.022567719188870364,-0.011239787955510235,-1.2137991857178858,1.13815660320859,-0.11275443255236121,-0.05553740815802242,-6.615431118779991,12.338476934925954,-87412652201988.77,0.0,-301246145588.08655,0.1635944374812511,-0.6811332833841501,-0.16023170697312114,-0.6954280051680404,-0.11275443255236121,-0.05553740815802242,-6.615431118779991
34.4,-61.738792106092205,29.518208777121437,295.2116960799496,303.0395165692579,0,7.364120335968361,213.75587017127594,11.026197075980011,19.840389869331652,-0.011268944661253739,-0.005568366138657529,0.6202635543601919,1.0639645569983218,0.05649387263808433,0.028357109084264132,9.170313700390585,16.131342909958807,-87412652201988.77,0.0,-301246145588.08655,0.16246199398494812,0.6815599519458703,0.15920305799502088,-0.6955116956162647,0.05649387263808433,0.028357109084264132,9.170313700390585
34.5,-61.74104261238748,29.517100744183576,294.95708165547705,302.7918354215032,0,7.342487791137911,213.5567345479524,11.02626072958613,19.831902721849236,-0.022505062952759794,-0.011080329378607543,-2.5461442447254607,1.1981175432823499,-0.11236118291505895,-0.05511963239949935,-31.66407799085608,16.515379945351185,-87412652201988.77,0.0,-301246145588.08655,0.16113421260807204,-0.6852857360925538,-0.1595545209869318,-0.6920705023824479,-0.11236118291505895,-0.05511963239949935,-31.66407799085608
34.61,-61.74328947646494,29.516002746043725,294.9995453328247,302.8335515758654,0,7.321987578074132,213.33596313235807,11.026250113666794,19.833318177760823,-0.020426037067783953,-0.009981801271375886,0.3860334304332292,1.0002604098789427,0.018900235317962286,0.00998661915665148,26.656160683260957,18.085130492254486,-87412652201988.77,0.0,-301246145588.08655,0.16394466385153028,0.6683648719749764,0.15457358666657564,-0.708884723639544,0.018900235317962286,0.00998661915665148,26.656160683260957
34.8,-61.745537068814365,29.51491748699559,294.76715725109733,302.6075324509845,0,7.283701196069506,212.95041498136132,11.026308210687226,19.82557190836991,-0.011829433418036732,-0.0057118897270296036,-1.2230951669862193,0.9703558909902241,0.045245282367091175,0.022473218654454386,-8.469097881155093,16.94523601670111,-1962381158037.3892,0.0,80161854213.36794,0.1585484157903661,-0.685585019505855,-0.1568547224072647,-0.6929878620423748,0.045245282367091175,0.022473218654454386,-8.469097881155093
34.9,-61.74777817999725,29.513838771117868,294.78949675132793,302.629645249891,0,7.265092411759639,212.74536750193124,11.026302625812168,19.8263165583776,-0.02241111182883028,-0.010787158777212216,0.2233950023060029,0.4869041001591724,-0.10581678410793396,-0.050752690501825404,14.464901692922018,10.954661803905687,-3924762316235.022,0.0,160323708426.93396,0.1657512259138397,0.6501340482203014,0.14832116544922255,-0.7265349835572451,-0.10581678410793396,-0.050752690501825404,14.464901692922018
35.1,-61.7500190106479,29.512773832273755,294.69535577646496,302.53829738283974,0,7.226693358820713,212.33091568811068,11.026326161055884,19.823178525882167,-0.011204153253245704,-0.005324694220565287,-0.4707048743148267,0.4319180461532758,0.05603479287792208,0.02731232278323426,-3.470499383104099,6.098925816727564,-3924762316235.022,0.0,160323708426.93396,0.15760546997309352,-0.6806343980221548,-0.1535066244691416,-0.6988083058376376,0.05603479287792208,0.02731232278323426,-3.470499383104099
35.3,-61.75225730147448,29.511717904110395,294.6696729713604,302.5136343117906,0,7.189266982055608,211.91071624109645,11.02633258175716,19.822322432378677,-0.01119145413291302,-0.005279640816802213,-0.12841402552283218,0.2185068060741056,6.349560166341511e-05,0.00022526701881537455,1.7114542439600093,4.931430844628089,-3924762316235.022,0.0,160323708426.93396,0.16183129630369145,-0.6560761239580455,-0.1469864510551221,-0.7223363027808268,6.349560166341511e-05,0.00022526701881537455,1.7114542439600093
35.4,-61.754489063260145,29.510668240058372,294.6805746827561,302.5246065277972,0,7.170903910944101,211.69848445965792,11.02632985632931,19.822685822758537,-0.02231761785665722,-0.010496640520223217,0.10901711395717784,0.18871382979590232,-0.1112616372374404,-0.0521699970342093,2.3743113948000665,2.1186558185190707,-3924762316235.022,0.0,160323708426.93396,0.1703477180290761,0.6092177136385422,0.13611488772940802,-0.7624356823298108,-0.1112616372374404,-0.0521699970342093,2.3743113948000665
35.5,-61.7567177568641,29.50962856333119,294.66515865927164,302.50994379315944,0,7.152355252020797,211.48484386190574,11.026333710335182,19.822171955309056,-0.022286936039534706,-0.010396767271814008,-0.15416023484476463,0.10186096835238181,0.00030681817122512733,0.0009987324840920705,-2.631773488019387,1.4647563524801022,-3924762316235.022,0.0,160323708426.93396,0.16471771477601885,-0.6336289888016698,-0.1405235923285256,-0.7427216833971025,0.00030681817122512733,0.0009987324840920705,-2.631773488019387
35.7,-61.758946753222695,29.508601016924747,294.6501965513905,302.49572454138337,0,7.115656751971413,211.05337426006213,11.026337450862153,19.821673218379683,-0.011144981792980799,-0.005137732032220937,-0.07481053940580189,0.17230280384283814,0.05570977123276874,0.026295176197964985,0.39674847719480805,1.9339557195820034,-3924762316235.022,0.0,160323708426.93396,0.16334037983014044,-0.6323087371238968,-0.13872859624867176,-0.7444863718407486,0.05570977123276874,0.026295176197964985,0.39674847719480805
