time,position_x,position_y,position_z,ground_station_distance,comm_range_status,wind_speed,wind_angle,battery_voltage,battery_current,velocity_x,velocity_y,velocity_z,velocity_total,acceleration_x,acceleration_y,acceleration_z,acceleration_total,angular_x,angular_y,angular_z,orientation_w,orientation_x,orientation_y,orientation_z,linear_acceleration_x,linear_acceleration_y,linear_acceleration_z
0.0,-104.22244872214686,11.649388956182543,269.3324017,289.0293578275105,0,7.693324017,180.0,11.032666899575,18.977746723333333,0.010855896263919362,0.010835898987968662,0.012359152323995204,0.03357580214746525,0.10899111990667626,0.10792826542127548,0.2606566705736669,0.25734763049487075,2012748726542802.5,0.0,-7073054376730.6,0.8714278861352506,-0.1271618328450261,0.3073965094089951,0.36048674529933544,0.10899111990667626,0.10792826542127548,0.2606566705736669
0.2,-104.22027754289408,11.651556135980137,269.3348735304648,289.03096566143086,0,7.733346068691314,180.59998222238025,11.032666281617383,18.97782911768216,0.010855896263919362,0.010835898987968662,0.012359152323995204,0.03357580214746525,0.10899111990667626,0.10792826542127548,0.2606566705736669,0.25734763049487075,2012748726542802.5,0.0,-7073054376730.6,0.8714278861352506,-0.1271618328450261,0.3073965094089951,0.36048674529933544,0.10899111990667626,0.10792826542127548,0.2606566705736669
0.3,-104.21810204206862,11.653719008533146,269.3387160124029,289.0338490613006,0,7.753378160529021,180.89994000119998,11.032665320996898,18.97795720041343,0.021755008254586986,0.021628725530096208,0.03842481938136189,0.03357580214746525,0.10899111990667626,0.10792826542127548,0.2606566705736669,0.25734763049487075,2012748726542802.5,0.0,-7073054376730.6,0.8329969420228629,-0.16536285578761623,0.40087044944025174,0.34361912529993716,0.10899111990667626,0.10792826542127548,0.2606566705736669
0.5,-104.21592253764487,11.655877566146284,269.3430996973098,289.0372352254366,0,7.793389335514455,181.4997222376539,11.032664225075672,18.97810332324366,0.0108975221187535,0.01079278806568773,0.0219184245344195,0.03357580214746525,-0.05428743067916743,-0.05417968732204238,-0.08253197423471195,0.25734763049487075,2012748726542802.5,0.0,-7073054376730.6,0.8202435341676801,-0.17572425308583087,0.4271498159853717,0.3374382406266422,-0.05428743067916743,-0.05417968732204238,-0.08253197423471195
0.6,-104.21373882768825,11.658031751219392,269.3474454367244,289.0405843961143,0,7.813402467326133,181.79952003839853,11.03266313864082,18.978248181224146,0.02183709956625535,0.021541850731079396,0.043457394145889346,0.04120666778088424,0.10939577447501853,0.10749062665391668,0.2153896961146985,0.25734763049487075,2012748726542802.5,0.0,-7073054376730.6,0.8214462157571883,-0.17461520001539563,0.42564966845517044,0.33698368845655075,0.10939577447501853,0.10749062665391668,0.2153896961146985
0.81,-104.21155121035399,11.660181566248522,269.35001968225174,289.0422812369421,0,7.855323107926513,182.42881919217493,11.032662495079437,18.97833398940839,0.010417225401226912,0.01023721442442713,0.012258312034960212,0.03447044540480436,-0.05438035316680207,-0.05383160146024887,-0.14856705767109105,0.24926246887309902,2012748726542802.5,0.0,-7073054376730.6,0.8697031889178568,-0.12952789539629025,0.31660315341526485,0.35581080751971067,-0.05438035316680207,-0.05383160146024887,-0.14856705767109105
0.9,-104.20935949388615,11.662326883826966,269.35422728558433,289.0454985483868,0,7.873299371251866,182.698380291575,11.032661443178604,18.978474242852812,0.024352405198158074,0.02383686198271168,0.04675114813987119,0.035678101480626244,0.15483533107701297,0.15110719509205062,0.383253734499011,0.26798823641312397,2012748726542802.5,0.0,-7073054376730.6,0.825318434985461,-0.171229238670892,0.419719959156257,0.33669746744400414,0.15483533107701297,0.15110719509205062,0.383253734499011
1.1,-104.20716395661654,11.664467726646322,269.3537903985242,289.04438626148624,0,7.913094505659592,183.29704301743396,11.032661552400368,18.97845967995081,0.010977686348070389,0.01070421409678168,-0.0021844353005917574,0.030509042200691804,-0.0668735942504384,-0.06566323942964998,-0.24467791720231466,0.23399100696043407,2074781753108567.2,0.0,-3572473246669.2783,0.9239565370095673,0.026643128952535212,-0.06548723388979831,0.3759067485352845,-0.0668735942504384,-0.06566323942964998,-0.24467791720231466
1.2,-104.20496452696366,11.666604017497532,269.35495257300516,289.0447625489393,0,7.93297394030789,183.59616122861277,11.032661261856749,18.97849841910017,0.021994296528760088,0.021362908512099238,0.01162174480953128,0.033099511963898834,0.11016610180689713,0.10658694415317573,0.13806180110123056,0.2412608615855652,2074781753108567.2,0.0,-3572473246669.2783,0.9114784753702608,-0.06773151648873316,0.16694598590279994,0.36979517087407116,0.11016610180689713,0.10658694415317573,0.13806180110123056
1.4,-104.2027611634316,11.668735679271903,269.359482061114,289.04827521136934,0,7.972681049899613,184.19390487759242,11.032660129484722,18.978649402037135,0.01101681766030538,0.010658308871853707,0.022647440544290024,0.025122693941401115,-0.054887394342273556,-0.05352299820122766,0.05512847867379373,0.1685693495439149,2074781753108567.2,0.0,-3572473246669.2783,0.8188516589708934,-0.17580096492032865,0.4345503521917001,0.3312732599286672,-0.054887394342273556,-0.05352299820122766,0.05512847867379373
1.5,-104.20055415460905,11.67086272496217,269.3604082151129,289.0484285317683,0,7.992480347098327,184.49250374910727,11.032659897946221,18.978680273837096,0.02207008822551868,0.021270456902673356,0.009261539988756331,0.031732832328326965,0.11053270565213293,0.10612148030819639,-0.1338590055553368,0.18045547366847534,2074781753108567.2,0.0,-3572473246669.2783,0.9174067745638461,-0.05469654794413514,0.13557277355953126,0.37012581738745454,0.11053270565213293,0.10612148030819639,-0.1338590055553368
1.7,-104.1983433891681,11.672985067663518,269.3622850874611,289.04946630806216,0,8.031987549008603,185.08908923171782,11.032659428728135,18.978742836248703,0.011053827204747792,0.01061171350674073,0.00938436174095614,0.02874077446210201,-0.055081305103854464,-0.05329371697966315,0.0006141087609990403,0.1715701316613189,2074781753108567.2,0.0,-3572473246669.2783,0.8929373246092217,-0.10126421819224443,0.25170608396903965,0.3592388338231402,-0.055081305103854464,-0.05329371697966315,0.0006141087609990403
1.8,-104.19612881586328,11.675102650574622,269.3660495308367,289.0522615755888,0,8.051719642160014,185.38704932800138,11.03265848761729,18.978868317694555,0.022145733048262152,0.02117582911104419,0.03764443375587231,0.03303111535063855,0.1109190584351435,0.10564115604303452,0.28260072014916143,0.21803189227155553,2074781753108567.2,0.0,-3572473246669.2783,0.8381945014370685,-0.15986566176233846,0.3985076328196335,0.3362508208680628,0.1109190584351435,0.10564115604303452,0.28260072014916143
2.0,-104.19391069353041,11.677215466998678,269.3678748981585,289.05324840559064,0,8.091017410571707,185.98223801800413,11.03265803127546,18.97892916327195,0.011090611664315022,0.010564082120279041,0.009126836609141266,0.030165664107715495,-0.05527560691973567,-0.053058734953825765,-0.14258798573365525,0.21024352182817313,2074781753108567.2,0.0,-3572473246669.2783,0.8951488968149507,-0.09860198939435638,0.24647802585487236,0.35809870565130053,-0.05527560691973567,-0.053058734953825765,-0.14258798573365525
2.1,-104.19168889108566,11.679323440344449,269.3716740426079,289.0560731182065,0,8.110636540118279,186.27944015899064,11.032657081489347,18.979055801420262,0.022218024447511177,0.02107973345770729,0.03799144449374122,0.03636609851782631,0.11127412783196146,0.10515651337428239,0.2886460788459993,0.2611210505569987,2074781753108567.2,0.0,-3572473246669.2783,0.837906818271451,-0.15987610108365427,0.4007930739266296,0.33424049438831616,0.11127412783196146,0.10515651337428239,0.2886460788459993
2.3,-104.18946364752424,11.681426534127253,269.37344801765045,289.05700918322117,0,8.149689527246881,186.87299398884537,11.032656637995586,18.979114933921682,0.011126217807131427,0.01051546891401857,0.008869875212838009,0.029937865396612175,-0.05545903320189882,-0.05282132271844367,-0.14560784640451624,0.229825389332616,2074781753108567.2,0.0,-3572473246669.2783,0.8973408469199978,-0.09593522457913783,0.24117572622753175,0.3569455227516856,-0.05545903320189882,-0.05282132271844367,-0.14560784640451624
2.4,-104.18723482191949,11.683524691970025,269.3772704770579,289.05985279650247,0,8.169177957624848,187.16931929764107,11.032655682380735,18.979242349235264,0.022288256047460188,0.020981578427718955,0.038224594074449635,0.03341207973567083,0.11162038240328752,0.10466109513700377,0.293547188616116,0.2407563837686956,2074781753108567.2,0.0,-3572473246669.2783,0.8379053111742658,-0.15963317413408962,0.40246595467822016,0.3323448428165855,0.11162038240328752,0.10466109513700377,0.293547188616116
2.61,-104.1850026134218,11.685617877604322,269.37884927492956,289.06060414976184,0,8.209882119087215,187.79054958741378,11.032655287681267,18.97929497583099,0.010629564274703778,0.009967550639512438,0.007518085103204917,0.02941450575150738,-0.055517579870268625,-0.05244775137241199,-0.14622147129164154,0.19955008733823137,2074781753108567.2,0.0,-3572473246669.2783,0.9036609922650336,-0.08676616592048132,0.21937513248333765,0.3574115201808027,-0.055517579870268625,-0.05244775137241199,-0.14622147129164154
2.7,-104.18276701125745,11.687706054871352,269.37967286571427,289.0606503282421,0,8.227259602034804,188.0563308041621,11.03265508178357,18.97932242885714,0.024840024048305286,0.023201969633666962,0.009151008718946358,0.033225751406683185,0.15789399748446067,0.14704909993504978,0.018143595730460396,0.1982478131931447,2.0041516202325567,0.0,0.07881174407158369,0.9222357840273286,-0.04810392451147111,0.12197162711637848,0.36371705113271263,0.15789399748446067,0.14704909993504978,0.018143595730460396
2.9,-104.18052801472754,11.689789157722984,269.38455660423193,289.06447883618995,0,8.26575001625199,188.64590342175129,11.032653860848942,18.979485220141065,0.011194982649556111,0.010415514258159689,0.024418692588312783,0.027202799606866095,-0.06822520699374596,-0.06393227687753646,0.07633841934683222,0.14926903470735914,9.021552748113985,0.0,-0.07897121117631514,0.8141600723024696,-0.1772721322187414,0.4507893411471285,0.32016704657911993,-0.06822520699374596,-0.06393227687753646,0.07633841934683222
3.0,-104.17828577320697,11.691867160222769,269.3865960456952,289.0656553681583,0,8.28490637377963,188.94011988577776,11.032653350988577,18.979553201523174,0.022422415205767245,0.02078002499784402,0.020394414632960416,0.035175833401560094,0.11227432556211124,0.10364510739684323,-0.04024277955352363,0.2011013523494643,27.372753888593422,0.0,-0.07972875716450005,0.8909939456188622,-0.10584427675740582,0.26992407892869513,0.34938198230980533,0.11227432556211124,0.10364510739684323,-0.04024277955352363
3.21,-104.17604027614324,11.69394001654695,269.38911404573116,289.0672765414155,0,8.324922417642766,189.55666554280648,11.032652721488567,18.979637134857704,0.010692843160597933,0.009870744400863886,0.011990476361591262,0.033530593043458234,-0.05585510497699673,-0.051948955223714934,-0.040018753673186455,0.1871385727160197,14.294836748137993,0.0,0.07803564397877949,0.8765903023094433,-0.1230140673605738,0.3146169751025991,0.3427435485982739,-0.05585510497699673,-0.051948955223714934,-0.040018753673186455
3.3,-104.17379152305546,11.696007650985475,269.39315236040255,289.07031320067443,0,8.342017580393762,189.82033303863912,11.0326517119099,18.979771745346753,0.024986145419821585,0.02297371598361215,0.04487016301545238,0.03843090276581833,0.1588144695469297,0.14558857314164758,0.36532985170956855,0.21567733530443842,9181713717452.395,0.0,-1768741761675.7004,0.8341949966342843,-0.16177075300378976,0.4149500729567685,0.32521587909584876,0.1588144695469297,0.14558857314164758,0.36532985170956855
3.5,-104.17153967353322,11.698070027943,269.39759994622955,289.0737300017452,0,8.379771614373198,190.40498125354344,11.032650600013442,18.97991999820765,0.01125924761119278,0.010311884787626005,0.02223792913497389,0.03663749694580617,-0.06863448904314397,-0.06330915597993067,-0.11316116940239235,0.20962904088039527,9181713717452.395,0.0,-1768741761675.7004,0.8247511091116355,-0.16877864131459308,0.4341784878823829,0.32060633012355594,-0.06863448904314397,-0.06330915597993067,-0.11316116940239235
3.6,-104.16928466723546,11.700127121939904,269.4019709602113,289.0770741515135,0,8.398568176152292,190.69661818922106,11.032649507259947,18.980065698673712,0.02255006297758653,0.020570939969033458,0.04371013981767642,0.04377003059146249,0.11290815366393737,0.10259055181407443,0.21472210682702514,0.2458823501266587,9181713717452.395,0.0,-1768741761675.7004,0.8267848393464295,-0.16707915159113707,0.43106656520206893,0.3204574899973082,0.11290815366393737,0.10259055181407443,0.21472210682702514
3.8,-104.16702667388942,11.702178877613283,269.4066148598472,289.0806713822363,0,8.435907087424438,191.2784529096354,11.032648346285038,18.98022049532824,0.011289966730174699,0.010258778366898383,0.023219498179400975,0.0381688032200648,-0.056300481237059226,-0.05156080801067544,-0.10245320819137738,0.18615048545873172,9181713717452.395,0.0,-1768741761675.7004,0.8209070090273651,-0.1711686051307057,0.44290006791492237,0.3172578147001442,-0.056300481237059226,-0.05156080801067544,-0.10245320819137738
3.9,-104.16476563328962,11.704225249717952,269.4111340031583,289.08415109272596,0,8.454488170277905,191.56862483514698,11.03264721649921,18.98037113343861,0.0226104059980514,0.02046372104668846,0.04519143311085823,0.04302162926220042,0.1132043926787669,0.10204942679790067,0.21971934931457235,0.21014830079846475,9181713717452.395,0.0,-1768741761675.7004,0.8239422162492968,-0.1687720113046413,0.43798694381227654,0.31749436141822224,0.1132043926787669,0.10204942679790067,0.21971934931457235
4.11,-104.16250170529652,11.706266193127448,269.4162250487086,289.0881625891774,0,8.493214749186563,192.17629692654444,11.032645943737823,18.980540834956955,0.010780609490945175,0.009718778140454527,0.024243074049189996,0.03966677094789932,-0.05633236431955334,-0.051166394791590054,-0.09975409076984854,0.17681999170516552,9181713717452.395,0.0,-1768741761675.7004,0.812089254780571,-0.1768547952709425,0.4603042406413968,0.3120151113442376,-0.05633236431955334,-0.051166394791590054,-0.09975409076984854
4.2,-104.1602348598357,11.708301662835016,269.41968685562665,289.09065450005124,0,8.509717774675407,192.43600418538512,11.032645078286093,18.98065622852089,0.025187171786929755,0.022616330084090953,0.03846452131155179,0.0438319051087719,0.16007291439982893,0.14330613270707163,0.1580160806929091,0.18309484837475387,9181713717452.395,0.0,-1768741761675.7004,0.8509225394054513,-0.1473539960132698,0.3846563272251946,0.3259710749688133,0.16007291439982893,0.14330613270707163,0.1580160806929091
4.4,-104.15796513689658,11.710331633954613,269.4263298836264,289.0961099755527,0,8.546142228968263,193.01151495687571,11.032643417529092,18.980877662787545,0.011348614695592108,0.010149855597987303,0.03321513999878786,0.039748164695394134,-0.06919278545668818,-0.062332372430518194,-0.026246906563819627,0.14653375608236713,9181713717452.395,0.0,-1768741761675.7004,0.7862354961496398,-0.1926934172477734,0.5045021429964035,0.30030081461051933,-0.06919278545668818,-0.062332372430518194,-0.026246906563819627
4.5,-104.15569262653139,11.712355991721882,269.4301199930287,289.09890547846624,0,8.564232268152749,193.2984092997603,11.032642470001742,18.981003999767623,0.022725103651879488,0.020243577672687325,0.03790109402302746,0.045338078933260764,0.1137648895628742,0.10093722074700058,0.04685954024239612,0.16667268302137928,9181713717452.395,0.0,-1768741761675.7004,0.8426642799829848,-0.15387133217523893,0.40406263133446785,0.3208954881802499,0.1137648895628742,0.10093722074700058,0.04685954024239612
4.7,-104.15341736885405,11.714374761495158,269.43622404478214,289.1038563443482,0,8.600134811205958,193.87041214631236,11.032640943988804,18.981207468159404,0.011376288386699674,0.01009384886637931,0.030520258767126024,0.042528637423609385,-0.05674407632589902,-0.05074864403154003,-0.036904176279507137,0.13355463460873332,9181713717452.395,0.0,-1768741761675.7004,0.7949269801376804,-0.18681579389909309,0.492032617348852,0.30181924866362897,-0.05674407632589902,-0.05074864403154003,-0.036904176279507137
4.8,-104.15113939403903,11.716387888756442,269.4409515004844,289.1075231254329,0,8.61796786608781,194.1554952277253,11.032639762124878,18.981365050016148,0.0227797481501569,0.02013127261284005,0.04727455702266087,0.04646101766903239,0.11403459763457266,0.10037423746460777,0.16754298255534902,0.15461537597120384,9181713717452.395,0.0,-1768741761675.7004,0.8208982394589169,-0.16962519797189496,0.4480936403512891,0.31074983852445615,0.11403459763457266,0.10037423746460777,0.16754298255534902
5.0,-104.14885879232033,11.71839530911238,269.44774102240336,289.11311059590406,0,8.65332848743244,194.72376135582684,11.032638064744399,18.981591367413447,0.011403008593546805,0.01003710177968741,0.033947609594804334,0.045022635242357154,-0.05688369778305043,-0.05047085416576316,-0.06663473713928261,0.14032067074152282,9181713717452.395,0.0,-1768741761675.7004,0.7851262964043633,-0.1920357259707215,0.5088156771563594,0.2963200724304399,-0.05688369778305043,-0.05047085416576316,-0.06663473713928261
5.1,-104.14657556399028,11.720396998295247,269.45247017349755,289.1167767358082,0,8.67087919550079,195.00691914633666,11.032636882456625,18.981749005783254,0.02283228330043138,0.02001689182867146,0.04729151094181833,0.049459234382510334,0.11429274706884615,0.09979790048984086,0.1334390134701404,0.15852513728788944,9181713717452.395,0.0,-1768741761675.7004,0.8213553102689006,-0.1688445605852384,0.4487184810431355,0.3090609865774019,0.11429274706884615,0.09979790048984086,0.1334390134701404
5.3,-104.1442898293985,11.722392882163922,269.4601775174376,289.1232174466149,0,8.70566845758407,195.57122125711322,11.03263495562064,18.982005917247918,0.0114286729588997,0.009979419343375531,0.03853671970034608,0.04703065979246805,-0.05701805170765835,-0.0501873624264796,-0.04377395620736121,0.1294007618226694,9181713717452.395,0.0,-1768741761675.7004,0.7738770980507554,-0.19770807317663844,0.5270103877165735,0.2903201786857906,-0.05701805170765835,-0.0501873624264796,-0.04377395620736121
5.4,-104.14200156895073,11.724382966704864,269.46491891862695,289.12689285944936,0,8.722921172492494,195.85234049737906,11.032633770270342,18.982163963954232,0.02288260447770073,0.019900845409423943,0.047414011893351676,0.05801603563039044,0.1145393151880097,0.0992142606604836,0.08877292193005552,0.21612138703778747,9181713717452.395,0.0,-1768741761675.7004,0.8215740544142132,-0.16822222320189611,0.44977208156871057,0.3072823317012418,0.1145393151880097,0.0992142606604836,0.08877292193005552
5.61,-104.13971088310777,11.726367148033074,269.4736617422226,289.1342965510483,0,8.758802992017447,196.44038273173368,11.032631584564443,18.98245539140742,0.010908027823642813,0.009448482515283546,0.04163249331256902,0.05424824076147827,-0.057021793590752,-0.049773156638763805,-0.027531040860869802,0.23052460881914713,-394156695995.759,0.0,894263554918.5004,0.7633702694820177,-0.2025938045733109,0.543321751920756,0.28464549163691866,-0.057021793590752,-0.049773156638763805,-0.027531040860869802
5.7,-104.1374177823843,11.728345442393076,269.4813794541554,289.14074382852624,0,8.774077892009492,196.69142112358423,11.03262965513646,18.982712648471846,0.02547889692736922,0.021981048444471237,0.08575235480887197,0.06536463717580678,0.16189854559696035,0.13925073254653011,0.4902206832922558,0.3328686323096409,-394156695995.759,0.0,894263554918.5004,0.7744432938367602,-0.19629521485718496,0.5280354383371664,0.28789642081053635,0.16189854559696035,0.13925073254653011,0.4902206832922558
5.9,-104.13512235734792,11.730317766159871,269.48821142115156,289.14636459455306,0,8.807604160037084,197.24711973558604,11.032627947144713,18.982940380705053,0.011477125181897908,0.009861618833975063,0.034159834980869136,0.06740435540192483,-0.0700088587273565,-0.060597148052480815,-0.25796259914001396,0.3290637953876561,-394156695995.759,0.0,894263554918.5004,0.7859195771614672,-0.18954329989516674,0.5114344929248426,0.29127051884099214,-0.0700088587273565,-0.060597148052480815,-0.25796259914001396
6.0,-104.13282460861781,11.7322840758399,269.4974277107527,289.15420659799804,0,8.824259223897597,197.52382540388928,11.032625643072311,18.983247590358424,0.022977487301147986,0.01966309680028651,0.09216289601113237,0.06983156666715042,0.1150036211925012,0.0980147796631148,0.5800306103026344,0.3589328425938966,-394156695995.759,0.0,894263554918.5004,0.7596788138653031,-0.20330091721733762,0.5502515940697011,0.28067778687767264,0.1150036211925012,0.0980147796631148,0.5800306103026344
6.2,-104.13052460686377,11.73424434807201,269.5103759913361,289.1655259748511,0,8.85717408098797,198.07488797572614,11.032622406002165,18.983679199711204,0.011500008770184412,0.00980136116055518,0.06474140291714997,0.06622298281048386,-0.05738739265481782,-0.0493086781986566,-0.13710746546991187,0.2813102236023422,-394156695995.759,0.0,894263554918.5004,0.7350753866477308,-0.21483645054199713,0.5832693783152945,0.2707513763268714,-0.05738739265481782,-0.0493086781986566,-0.13710746546991187
6.3,-104.1282224328051,11.736198529628407,269.51511563213575,289.1691937553966,0,8.873440672205897,198.34922038768065,11.032621221091965,18.98383718773786,0.023021740586699563,0.019541815563961576,0.04739640799641637,0.06995391212980055,0.11521731816515192,0.0974045440340643,-0.17344994920733664,0.2854068887948387,-394156695995.759,0.0,894263554918.5004,0.8230059700955854,-0.16578716770544116,0.45149596818272514,0.30220386980642067,0.11521731816515192,0.0974045440340643,-0.17344994920733664
6.5,-104.1259181072094,11.738146557415606,269.5296202032623,289.18196187381307,0,8.905669013504703,198.89542650167127,11.032617594949183,18.984320673442078,0.011521627978510186,0.009740138935994116,0.07252285563282605,0.06646577023016949,-0.057500563040946834,-0.049008383139837255,0.1256322381820483,0.19992306906880652,-394156695995.759,0.0,894263554918.5004,0.7285066670494942,-0.216904370268173,0.5925513380186747,0.26667103711367557,-0.057500563040946834,-0.049008383139837255,0.1256322381820483
6.6,-104.12361170089149,11.740088418475374,269.5343411757234,289.18561040055727,0,8.921577115704102,199.16727592796997,11.03261641470607,18.98447803919078,0.023064063179134647,0.01941861059767909,0.0472097246108662,0.06436406483738517,0.11542435200624503,0.09678471661685008,-0.25313131021959945,0.2373841296418014,-394156695995.759,0.0,894263554918.5004,0.8238561263174774,-0.1647161858108953,0.45138386083447485,0.30063644396385925,0.11542435200624503,0.09678471661685008,-0.25313131021959945
6.8,-104.12130321471234,11.742024069985701,269.5499648214441,289.1994198604692,0,8.953085696251378,199.70840710895135,11.032612508794639,18.98499882738147,0.011542430895730139,0.009678257551639638,0.0781182286036141,0.07065118949339921,-0.05760816141702249,-0.048701765230197216,0.15454251996373938,0.23334982017076808,-394156695995.759,0.0,894263554918.5004,0.7246883298329347,-0.21764306096600022,0.5983003456143049,0.2636190794595577,-0.05760816141702249,-0.048701765230197216,0.15454251996373938
6.9,-104.11899277957787,11.743953459261727,269.5546838132865,289.20306475894745,0,8.9686212025768,199.9776648134484,11.032611329046677,18.98515612710955,0.023104351344755848,0.019293892760252514,0.04718991842366879,0.08994337405765325,0.11561920449025648,0.09615635208612824,-0.30928310179945145,0.3698378582573696,-394156695995.759,0.0,894263554918.5004,0.8243359277013891,-0.16388836189063882,0.4519422169051125,0.2989299511865373,0.11561920449025648,0.09615635208612824,-0.30928310179945145
7.1,-104.11668040643787,11.745876533756682,269.57195072507045,289.218404276288,0,8.999387049293778,200.51350461616315,11.032607012318731,18.985731690835685,0.011561865700002769,0.009615372474778318,0.08633455891981642,0.08631062106724696,-0.0577124282237656,-0.04839260142737115,0.19572320248073885,0.44489231888701103,-394156695995.759,0.0,894263554918.5004,0.7197895268712534,-0.21879103260724111,0.6052541714476009,0.2601939834092874,-0.0577124282237656,-0.04839260142737115,0.19572320248073885
7.2,-104.11436609628485,11.747793271062832,269.5887375315929,289.2332955906857,0,9.014656719258877,200.78006289936673,11.032602815617102,18.986291251053096,0.023143101530109664,0.019167373061499304,0.16786806522475128,0.10755336046161346,0.11581235830106834,0.09552000586720935,0.8153350630493442,0.7091752600410892,-394156695995.759,0.0,894263554918.5004,0.7214695296742307,-0.21756733937099662,0.6037885906410021,0.2599721300494003,0.11581235830106834,0.09552000586720935,0.8153350630493442
7.4,-104.11205002015295,11.749703618912411,269.5956872086481,289.23901717443715,0,9.04453269534277,201.31039699503822,11.032601078197837,18.98652290695494,0.011580380659523815,0.009551739247894977,0.034748385275804566,0.11705308916137325,-0.05781360435292919,-0.04807816906802159,-0.665598399744733,0.7188380319746954,-394156695995.759,0.0,894263554918.5004,0.7864406622592053,-0.18568620038495587,0.5169445288796247,0.28248906844924726,-0.05781360435292919,-0.04807816906802159,-0.665598399744733
7.5,-104.10973209911681,11.75160752517855,269.6140205330471,289.25534855067076,0,9.05941772537714,201.57414923718915,11.032596494866738,18.987134017768238,0.02317921036137713,0.01903906266138129,0.18333324399009207,0.11197631676439546,0.11598829701853354,0.09487323413486345,1.4858485871428804,0.7954775976178126,56360642366804.35,0.0,-3242077026.4817586,0.7174579341750753,-0.2182673800859,0.6096108923204594,0.25688134117511097,0.11598829701853354,0.09487323413486345,1.4858485871428804
7.71,-104.1074124542904,11.753504967876209,269.63554188263794,289.2746508999733,0,9.09006102104583,202.1248939586155,11.03259111452934,18.987851396087933,0.0110459277448307,0.009035441417425988,0.1024826170992453,0.1009783613234915,-0.057777536269268716,-0.0476362916378824,-0.3850029851945085,0.6942772241992696,3367476429606.7344,0.0,-914740186843.4902,0.7104053194894767,-0.22068298894963836,0.6183361582133684,0.25354229602817857,-0.057777536269268716,-0.0476362916378824,-0.3850029851945085
7.8,-104.10509115682592,11.755395895163106,269.6402773363248,289.27830630628563,0,9.10296161176407,202.35960620296817,11.03258993066592,18.98800924454416,0.025792194049737836,0.02101030318774933,0.052616152076249596,0.10353781156772919,0.16384740338785733,0.13305401967025957,-0.554071833588842,0.6927778121094261,-7.4554976305882334,0.0,-0.12272880310567444,0.8252340683960928,-0.1617193764956401,0.4545845732199367,0.2935786801093398,0.16384740338785733,0.13305401967025957,-0.554071833588842
8.0,-104.10276819791274,11.757280245340635,269.6631922740874,289.2989064146065,0,9.13134410453992,202.87829479190856,11.032584201931478,18.988773075802914,0.011614794565915066,0.009421750887641514,0.11457468881303602,0.0919654105964097,-0.07088699741911379,-0.057942761500539036,0.30979268368393187,0.48354025859582983,-7.4554976305882334,0.0,-0.12272880310567444,0.7082669112203048,-0.22049528637765317,0.6218236922808554,0.25114757986866926,-0.07088699741911379,-0.057942761500539036,0.30979268368393187
8.11,-104.10044369877609,11.759158016854785,269.667894577001,289.30252944130984,0,9.146631566859252,203.16184574156526,11.03258302635575,18.988929819233366,0.02113181033316582,0.017070650128642766,0.04274820830532526,0.08139497788197624,0.08651832515682548,0.06953544764546629,-0.6529680046155557,0.5595718426821042,-7.4554976305882334,0.0,-0.12272880310567444,0.8263552411861844,-0.16045366864367158,0.45396450002637057,0.2920751072904317,0.08651832515682548,0.06953544764546629,-0.6529680046155557
8.3,-104.09811762067618,11.761029148297062,269.6920132272551,289.32425044811777,0,9.172782874492476,203.64867307169013,11.032576996693185,18.989733774241838,0.012242516315328156,0.009848060222510559,0.12694026449516405,0.09579253880610583,-0.04678575798861896,-0.038013631084906095,0.4431160852096748,0.5370850342219617,-7.4554976305882334,0.0,-0.12272880310567444,0.7067066743199156,-0.2200501194746075,0.6246276292084207,0.24896575310745717,-0.04678575798861896,-0.038013631084906095,0.4431160852096748
8.41,-104.09579011490685,11.762893598405396,269.69671540817285,289.3278719505107,0,9.187587574809584,203.92879124602558,11.032575821147956,18.98989051360576,0.021159143357543004,0.016949546439400325,0.04274709925249993,0.11982763225817986,0.08106024583831722,0.06455896560808912,-0.7653924112969506,0.6754731766931916,-7.4554976305882334,0.0,-0.12272880310567444,0.8267492369460319,-0.1596512751867585,0.4546647291659477,0.29030527655013694,0.08106024583831722,0.06455896560808912,-0.7653924112969506
8.6,-104.09346110279452,11.76475131606505,269.72204610423046,289.35072174186894,0,9.212905586832859,204.40959219755445,11.032569488473943,18.990734870141015,0.012257958485930151,0.009777461366598454,0.13331945293478084,0.11729057176829553,-0.04684834142954145,-0.03774781617264152,0.47669659832779554,0.7424657285687729,-7.4554976305882334,0.0,-0.12272880310567444,0.7053169241977856,-0.21951190730430248,0.6272253710786165,0.246841837756678,-0.04684834142954145,-0.03774781617264152,0.47669659832779554
8.7,-104.09113073569715,11.766602270309539,269.74542970107586,289.37175617437464,0,9.226112171061768,204.6610771556343,11.03256364257473,18.991514323369195,0.023303670973717855,0.01850954244488896,0.23383596845406002,0.13269018057055648,0.11045712487787743,0.08732081078290536,1.0051651551927954,0.9342984503643347,683939248011.5189,0.0,-464503865719.1517,0.7085481822356173,-0.21769211515092204,0.6240871215755165,0.2471535578042662,0.11045712487787743,0.08732081078290536,1.0051651551927954
8.9,-104.0887991050029,11.76844642032152,269.7524163855476,289.3775053042504,0,9.251667658909124,205.16074781199663,11.032561895903612,18.991747212851585,0.01165815347121673,0.009220750059908363,0.034933422358562706,0.15330367962688207,-0.05822758751250531,-0.04644396192490274,-0.9945127304774813,0.8367981067506369,12.791281646168843,0.0,-0.0449146784777227,0.78786653472223,-0.18112929888520693,0.5209897626871313,0.27391270092010195,-0.05822758751250531,-0.04644396192490274,-0.9945127304774813
9.02,-104.08646614212924,11.770283735433688,269.77682524569383,289.3994945621275,0,9.266905376620768,205.45840883930293,11.032555793688577,18.992560841523126,0.019441357280551238,0.015310959268063092,0.2034071678854364,0.13745985911530478,0.06486003174445466,0.05075174340128974,1.4039478793906233,0.9552026292830196,4.922661933605714,0.0,0.08115523024845288,0.7073308034354865,-0.21707742063410052,0.6264922562300981,0.24508770031536856,0.06486003174445466,0.05075174340128974,1.4039478793906233
9.2,-104.08413194852159,11.772114155129692,269.8043293707909,289.42436895047535,0,9.289246533780641,205.90183946278617,11.032548917657302,18.99347764569303,0.01296774226473318,0.010168998311134297,0.15280069498386561,0.1189312148926743,-0.03596452786565593,-0.028566449760715568,-0.28114707167539366,0.8492981303363178,443722836667.99866,0.0,-470405777822.8392,0.7032977388961393,-0.21808521339022527,0.6315261058752694,0.24287014588486516,-0.03596452786565593,-0.028566449760715568,-0.28114707167539366
9.3,-104.08179663565234,11.773937659045016,269.8089653513622,289.4279250225813,0,9.301329535281177,206.14658222417873,11.03254775866216,18.99363217837874,0.023353128692491176,0.018235039153235728,0.046359805712653974,0.12238495532569352,0.10385386427757848,0.08066040842101316,-1.0644088927121014,0.8434134831268546,476204960170.4083,0.0,1166613938.9433594,0.8293308006835152,-0.15632449916640573,0.45420384324439744,0.28543290416493833,0.10385386427757848,0.08066040842101316,-1.0644088927121014
9.5,-104.07946016501967,11.775754196967869,269.83742767919597,289.4536919641459,0,9.325205286370707,206.63257072314389,11.0325406430802,18.994580922639866,0.011682353163351464,0.009082689614263761,0.1423116391688955,0.10987288344470644,-0.05835387764569877,-0.045761747694859994,0.4797591672812094,0.6582100611770082,476204960170.07825,0.0,1166613939.0711322,0.702592136966631,-0.2172306356739481,0.6333238467155584,0.24098972006864344,-0.05835387764569877,-0.045761747694859994,0.4797591672812094
9.6,-104.07712267814638,11.777563728840073,269.84209334736454,289.4572745923595,0,9.336804070075642,206.87379486130766,11.032539476663159,18.99473644491215,0.02337486873287284,0.018095318722046793,0.04665668168570408,0.0891431423916661,0.11692515569521417,0.09012629107783064,-0.9565495748319176,0.7831561855343148,396233917731.93085,0.0,-472530401927.348,0.8290279936679206,-0.15593405283368086,0.45616392230436864,0.28339307131561803,0.11692515569521417,0.09012629107783064,-0.9565495748319176
9.8,-104.07478414657884,11.779366204757949,269.87040915024176,289.4829043281514,0,9.359698832486359,207.35264931030852,11.032532397712439,18.995680305008058,0.011692657837727376,0.009012379589377013,0.14157901438608103,0.10634745156790204,-0.058411054475727,-0.04541469566334866,0.4746116635018822,0.6674173335884671,396233917739.90515,0.0,-472530401927.47595,0.7031866919273206,-0.21586929955856357,0.6336759546502742,0.2395489643109949,-0.058411054475727,-0.04541469566334866,0.4746116635018822
9.91,-104.0724446918857,11.781161604973192,269.87505668352196,289.4864689978485,0,9.371899067548618,207.61395197282562,11.032531235829119,18.995835222784066,0.021267769937532592,0.016321820138578295,0.042250302547328054,0.12818268838514174,0.08704647363459332,0.06644945953819381,-0.9029882894432135,0.7928028610622402,-47488918934.90935,0.0,-2124624104.7233996,0.8297757998836641,-0.1548807100121562,0.4562087194973322,0.28170497306252884,0.08704647363459332,0.06644945953819381,-0.9029882894432135
10.11,-104.07010428565697,11.782949879893758,269.90311064423724,289.51185407394803,0,9.393757670112091,208.08523338561238,11.03252422233894,18.996770354807907,0.011702031143698874,0.008941374602828876,0.14026980357641655,0.1250340709546539,-0.04782869396916876,-0.03690222767874723,0.4900975051454442,0.825176960460888,-186981459555.30936,0.0,-950317426113.261,0.7039142216271355,-0.21445123642570926,0.633878712866727,0.23814536140972803,-0.04782869396916876,-0.03690222767874723,0.4900975051454442
10.21,-104.06776295950264,11.784730990084718,269.92816403077563,289.53444166269617,0,9.404543563826579,208.31900697273568,11.032517958992306,18.997605467692523,0.02341326154322554,0.017811101909596973,0.25053386538388267,0.14648299217723776,0.11711230399526498,0.08869727306767972,1.1026406180746455,1.1530659125499583,-186981459563.68195,0.0,-950317426113.2595,0.7080464360611051,-0.21231615620219552,0.629771319543105,0.23870521418190443,0.11711230399526498,0.08869727306767972,1.1026406180746455
10.4,-104.06542091505175,11.786504896269149,269.93506794289914,289.54010850525395,0,9.42415913391567,208.75970075385504,11.032516233014276,18.997835598096636,0.012326549741571526,0.009336348339108598,0.0363363795973951,0.16249330776314191,-0.05835111474554759,-0.04460396616046525,-1.1273551883499375,1.0906499321985066,50830683918086.92,0.0,2248508003.915332,0.7907074555504136,-0.17565399769043835,0.5228365835528789,0.26564882783688665,-0.05835111474554759,-0.04460396616046525,-1.1273551883499375
10.5,-104.06307806395114,11.788271559328983,269.959853981761,289.56244632955116,0,9.434444991005645,208.9897959256961,11.03251003650456,18.998661799392032,0.023428511006073988,0.01766663059834534,0.24786038861862014,0.14512738598684258,0.11101961264502501,0.08330282259236772,2.1152400902122577,1.1616806281506362,50830683918086.92,0.0,2248508003.915332,0.7088495116967003,-0.21086994587877755,0.6298825115347595,0.23730625224611027,0.11101961264502501,0.08330282259236772,2.1152400902122577
10.7,-104.06073451786428,11.790030950305884,269.9857063499236,289.58577819270363,0,9.4542580720486,209.4461108084199,11.03250357341252,18.999523544997455,0.011717730434313053,0.008796954884502415,0.1292618408129447,0.1204165727495096,-0.05855390285880488,-0.04434837856921479,-0.5929927390283793,1.0227346014337493,50830683918086.92,0.0,2248508003.915332,0.7075350476882912,-0.2107873206117112,0.6318641565396081,0.2360308230773104,-0.05855390285880488,-0.04434837856921479,-0.5929927390283793
10.8,-104.05839035847028,11.791783010402092,269.99026965137546,289.589261639624,0,9.46381831028365,209.6723102387163,11.032502432587156,18.99967565504585,0.02344159393999201,0.01752060096208627,0.045633014518670544,0.1231962643044739,0.11723863505678792,0.0872364607758373,-0.8362882629427296,0.9656497599224275,50830683918086.92,0.0,2248508003.915332,0.8326540521915328,-0.15130600521643175,0.4551742522465872,0.27678533603900635,0.11723863505678792,0.0872364607758373,-0.8362882629427296
11.0,-104.0560455674626,11.793527710981294,270.0158433915489,289.6123332965242,0,9.48257315403836,210.120742811271,11.032496039152113,19.00052811305163,0.01172395503836303,0.008723502896010902,0.1278687008672823,0.09638104940702666,-0.05858819450814512,-0.04398549033037699,0.41117843174306024,0.6099102123000086,50830683918086.92,0.0,2248508003.915332,0.7083282159812134,-0.2093284132003128,0.6319881844535936,0.23461391387332725,-0.05858819450814512,-0.04398549033037699,0.41117843174306024
11.1,-104.05370025654797,11.795265013569466,270.02031377733726,289.6157293142614,0,9.491600509133468,210.34295602326654,11.032494921555665,19.000677125911242,0.023453109146345325,0.01737302588171736,0.04470385788351921,0.08031160981958274,0.11729154107982337,0.08649522985706488,-0.8316484298376339,0.6421724484555777,50830683918086.92,0.0,2248508003.915332,0.8350950239084505,-0.14920801150807927,0.4520973455897761,0.2756107045378097,0.11729154107982337,0.08649522985706488,-0.8316484298376339
11.31,-104.05135442744528,11.796994899855715,270.0443962171112,289.63741017886,0,9.51012075599029,210.80520245661052,11.032488900945722,19.00147987390371,0.01117061477473375,0.008237553744042477,0.11467828463791839,0.0972284706790846,-0.058488068436245357,-0.04350224827464212,0.33321155597332813,0.576152763294363,50830683918086.92,0.0,2248508003.915332,0.7109298589593629,-0.20719564416392505,0.6300742178863575,0.23378447475059427,-0.058488068436245357,-0.04350224827464212,0.33321155597332813
11.41,-104.04900818188436,11.798717301693156,270.0484300207368,289.64039840855054,0,9.518585572674432,211.0232032194721,11.032487892494816,19.00161433402456,0.02346245560914903,0.01722401837440663,0.04033803625588931,0.11798157852805077,0.12291840834415324,0.08986464630364187,-0.7434024838202934,0.680038907976197,50830683918086.92,0.0,2248508003.915332,0.8460078817814413,-0.1418099218018766,0.4328092763058543,0.27719440900896114,0.12291840834415324,0.08986464630364187,-0.7434024838202934
11.6,-104.04666146160491,11.800432181099707,270.0746404995911,289.66406301429583,0,9.534352622539444,211.43359810560466,11.032481339875101,19.00248801665304,0.012351159365514888,0.009025681087110058,0.1379498887068194,0.11399154703413991,-0.058480506545443005,-0.0431491436173505,0.5137465918470019,0.7023825051889193,50830683918086.92,0.0,2248508003.915332,0.7082726776650394,-0.2069877082217912,0.6340725211374681,0.23120973304915377,-0.058480506545443005,-0.0431491436173505,0.5137465918470019
11.7,-104.04431441835533,11.802139510258959,270.0977052665796,289.6847946476951,0,9.542478248138067,211.64757386401845,11.032475573683355,19.003256842219322,0.02347043249585576,0.0170732915925243,0.23064766988511648,0.14002050019810167,0.1111927313034091,0.08047610505414272,0.9269778117829741,1.1094487416914458,50830683918086.92,0.0,2248508003.915332,0.7131768427618562,-0.20459740419889483,0.6290588088665415,0.23195626340047915,0.1111927313034091,0.08047610505414272,0.9269778117829741
11.91,-104.04196715389159,11.803839251521001,270.10410133615255,289.6899844815795,0,9.558521339111604,212.09233335092716,11.032473974665962,19.003470044538417,0.01117744982731693,0.00809400600972525,0.030457474156805893,0.1557530107866673,-0.05853801270732752,-0.04275850277523341,-0.9532866463252847,1.0749825735294896,50830683918086.92,0.0,2248508003.915332,0.7995197571423224,-0.16704679441977036,0.5154991563464748,0.25908328047026413,-0.05853801270732752,-0.04275850277523341,-0.9532866463252847
12.0,-104.03961956997607,11.805531367403248,270.12602052432106,289.7096477085947,0,9.565338377177664,212.28102409047852,11.032468494868919,19.004200684144035,0.02608426572802757,0.01880128758051414,0.2435465352056734,0.1329366928908473,0.16563128778567407,0.11896979523098787,2.3676562338763096,1.0787329799473624,-114960147911669.2,0.0,-492651679548.0189,0.715593932662147,-0.20252288655672052,0.6273280023451806,0.2310181409142175,0.16563128778567407,0.11896979523098787,2.3676562338763096
12.2,-104.03727182837645,11.807215820591267,270.1515384486735,289.7326664377191,0,9.57971409712487,212.696166348446,11.032462115387832,19.00505128162245,0.011738707998105766,0.008422265940097902,0.12758962176207023,0.1390167451255753,-0.07172778864960928,-0.051895108202081375,-0.579784567218018,1.3746060617439728,-114960147911669.2,0.0,-492651679548.0189,0.7100070004807554,-0.20396019192700562,0.6341470512608421,0.22835896469067835,-0.07172778864960928,-0.051895108202081375,-0.579784567218018
12.4,-104.03492399086451,11.808892573939609,270.1555518283917,289.7356338756257,0,9.593123517182995,213.10549604073105,11.032461112042903,19.00518506094639,0.011739187559669455,0.008383766741708553,0.020066898591153296,0.14238687228376762,2.397807818445273e-06,-0.00019249599194674506,-0.5376136158545818,1.623462333536482,-114960147911669.2,0.0,-492651679548.0189,0.8474201060911912,-0.13921550059744622,0.4344747541594053,0.2715324956315931,2.397807818445273e-06,-0.00019249599194674506,-0.5376136158545818
12.5,-104.03257598921509,11.810561590472615,270.18168018426684,289.7592216638283,0,9.599786040553841,213.30795839382168,11.032454579953933,19.00605600614223,0.023480016494232897,0.016690165330057797,0.26128355875130277,0.118910099313009,0.11740828934563484,0.08306398588349273,2.4121666016015033,1.2355910385580373,-114960147911669.2,0.0,-492651679548.0189,0.7095735248624666,-0.20289613492984956,0.6356400543431533,0.2264956788978897,0.11740828934563484,0.08306398588349273,2.4121666016015033
12.6,-104.03022802520479,11.812222833385242,270.1858053387151,289.76229285014244,0,9.606038736568184,213.50894039868865,11.032453548665321,19.006193511290505,0.023479640102976956,0.016612429126272647,0.04125154448274785,0.10329826610707764,-3.7639125594069036e-06,-0.0007773620378515061,-2.200320142685557,1.2928247285801535,-114960147911669.2,0.0,-492651679548.0189,0.8448630603742749,-0.14019538533346826,0.4408789402701349,0.2686585624403167,-3.7639125594069036e-06,-0.0007773620378515061,-2.200320142685557
12.8,-104.02788002061104,11.813876246043872,270.2112993157935,289.78528908740145,0,9.618144713736385,213.90642769994,11.03244717517105,19.00704331052645,0.011740022968780232,0.008267063293150257,0.12746988539191695,0.12438268450842394,-0.05869808567098331,-0.041726829165611726,0.4310917045458432,1.2744284703834345,-114960147911669.2,0.0,-492651679548.0189,0.7108237300496065,-0.20122226802992768,0.6352492423816892,0.2251613281643762,-0.05869808567098331,-0.041726829165611726,0.4310917045458432
12.9,-104.02553214721075,11.815521831987105,270.2154377412153,289.7883722449007,0,9.623824505824299,214.10291533028746,11.032446140564696,19.00718125804051,0.02347873400282205,0.01645585943233391,0.04138425421786011,0.11994648191610313,0.11738711034041859,0.08188796139183684,-0.8608563117405715,1.012260108077229,-114960147911669.2,0.0,-492651679548.0189,0.8447971656489796,-0.1396148503554707,0.4424518865366049,0.266574137102363,0.11738711034041859,0.08188796139183684,-0.8608563117405715
13.1,-104.02318434677932,11.817159534926592,270.2413070423655,289.81171848820054,0,9.634782973649124,214.491334887058,11.032439673239407,19.00804356807885,0.011739002157185083,0.008188514697433676,0.12934650575118714,0.11681237088571943,-0.05869865922818504,-0.04133672367450132,0.43981125766663676,0.7801301360300467,-114960147911669.2,0.0,-492651679548.0189,0.7106976661983743,-0.20002913885914364,0.6363934917058596,0.22338418606042287,-0.05869865922818504,-0.04133672367450132,0.43981125766663676
13.2,-104.02083670108937,11.818789308747812,270.265205348316,289.83322699560637,0,9.64008225371969,214.6832495504536,11.03243369866292,19.0088401782772,0.023476456899516135,0.016297738212198768,0.23898305950467688,0.135710847273017,0.11737454742331094,0.08109223514765121,1.0963655375349013,1.0383027047326714,-114960147911669.2,0.0,-492651679548.0189,0.7137467252569456,-0.19833187758317664,0.6334780963711395,0.22346270368299823,0.11737454742331094,0.08109223514765121,1.0963655375349013
13.4,-104.01848937190972,11.82041113751088,270.2715137898406,289.83833324273354,0,9.649684221289045,215.06244600009956,11.032432121552539,19.009050459661353,0.011736645898210378,0.00810914381533574,0.03154220762297638,0.15346820423969618,-0.05869905500652847,-0.040942971984314916,-1.037204259408497,0.9518205807175935,-114960147911669.2,0.0,-492651679548.0189,0.8021594856126523,-0.16141819008945402,0.5175927350892191,0.250164122393183,-0.05869905500652847,-0.040942971984314916,-1.037204259408497
13.51,-104.01614221100422,11.822024985451332,270.2958521994301,289.8602522448234,0,9.654842275225526,215.26835139763472,11.032426036950142,19.009861739981005,0.02133782641364375,0.014671344913207606,0.2212582689956198,0.13740105234744698,0.0872834592312129,0.05965637361701726,1.7246914670240399,1.0593501722665375,35413343242201.49,0.0,503143467700.6997,0.713449342832967,-0.19718627879811473,0.6348201879215734,0.22160987268661542,0.0872834592312129,0.05965637361701726,1.7246914670240399
13.7,-104.0137954301305,11.823630796980915,270.32213401130696,289.88398372699265,0,9.663037462910298,215.61953260223407,11.032419466497172,19.010737800376898,0.01235147828274903,0.008451639629382777,0.13832532566766567,0.11593787675217763,-0.047296569109972326,-0.032735290967499185,-0.436489175410286,0.9310217972294202,-178890559720.30908,0.0,-513546960247.5378,0.7109203427073254,-0.19743276169018298,0.6381505436039852,0.2199464812953927,-0.047296569109972326,-0.032735290967499185,-0.436489175410286
13.8,-104.01144907103901,11.82522854668838,270.32622576143996,289.88702265272894,0,9.666969318359119,215.80207290163648,11.03241844355964,19.010874192047996,0.023463590914900245,0.01597749707466156,0.04091750132999947,0.11891703767927633,0.11112112632151057,0.07525857445278675,-0.9740782433766482,0.9091979220298045,-365876850035.0624,0.0,2785924405.39668,0.8467191315878263,-0.13654255419184294,0.44311127470232,0.26091232498601924,0.11112112632151057,0.07525857445278675,-0.9740782433766482
14.0,-104.00910307547167,11.826818209340248,270.35274878755854,289.9109793169441,0,9.674426947852506,216.16237186624852,11.03241181280311,19.011758292918618,0.011729977836694203,0.0079483132593339,0.13261513059291066,0.10136322977103407,-0.05866806539103042,-0.040145919076638434,0.4584881463145576,0.6582998691385734,-365876850038.5383,0.0,2785924405.5801077,0.7109918454411466,-0.1961273543792623,0.6390726893046031,0.21819888717719457,-0.05866806539103042,-0.040145919076638434,0.4584881463145576
14.1,-104.00675762516094,11.82839972988161,270.35681252916726,289.9139919921081,0,9.677768327319374,216.34011451823014,11.032410796867708,19.01189375097224,0.023454503107274233,0.01581520541362741,0.040637416087179336,0.08246402093664075,0.11724525270580072,0.07866892154293537,-0.9197771450573166,0.7491308197111338,-365876850027.4391,0.0,2785924405.57817,0.847663969061176,-0.13532585179508674,0.442748248925542,0.25908820402471855,0.11724525270580072,0.07866892154293537,-0.9197771450573166
14.3,-104.00441264182852,11.829973063436881,270.38366432756,289.9382555766866,0,9.684045763949957,216.69074666367496,11.03240408391811,19.012788810918664,0.011724916662103561,0.007866667776354988,0.13425899196363317,0.10126294615183881,-0.058647932225853044,-0.03974268818636189,0.4681078793822667,0.6651379005090312,-365876850018.268,0.0,2785924405.3933363,0.7109590070219969,-0.19484122796050124,0.6401113156869718,0.21640630709532052,-0.058647932225853044,-0.03974268818636189,0.4681078793822667
14.41,-104.0020683171843,11.831538205310556,270.3876846258338,289.9412276787752,0,9.687053398557447,216.88081797993723,11.032403078843542,19.012922820861128,0.021312042220245186,0.014228562487953227,0.03654816612559214,0.12416826280237121,0.08715568689219705,0.057835406469075194,-0.8882802348912866,0.7805847604037346,-186986290294.3942,0.0,516332884653.0239,0.8490030020175092,-0.13387450866525558,0.44162657829504265,0.25736643883441035,0.08715568689219705,0.057835406469075194,-0.8882802348912866
14.6,-103.99972455292517,11.833095120988014,270.4148603689029,289.96579376809245,0,9.691885330512319,217.20444565163936,11.032396284907774,19.01382867896343,0.012335601363806898,0.008194293039253668,0.14303022667951718,0.12107514103180465,-0.04724442556020164,-0.031759312887892494,0.5604318976522384,0.8102047964524137,-186986290294.3942,0.0,516332884653.0239,0.7109397771202602,-0.19353989209089323,0.6411302421559266,0.2146135039337528,-0.04724442556020164,-0.031759312887892494,0.5604318976522384
14.7,-103.9973814807339,11.834643756136249,270.4394904035122,289.9879861604534,0,9.694243603590284,217.37238167213866,11.032390127399122,19.014649680117074,0.023430721912660685,0.015486351482341176,0.2463003460928812,0.14182308967057122,0.11095120548853826,0.07292058443087535,1.032701194133644,1.1285909702922285,-186986290294.3942,0.0,516332884653.0239,0.7145039334282619,-0.1916851752224792,0.6376582709665936,0.2147855958470304,0.11095120548853826,0.07292058443087535,1.032701194133644
14.9,-103.99503923227802,11.836184096604642,270.44569627825086,289.9929965952966,0,9.697932466868796,217.70326335739577,11.032388575930437,19.014856542608364,0.011711242279446248,0.007701702341966724,0.031029373693342965,0.15879431584163103,-0.05859739816607187,-0.03892324570187205,-1.0763548619976855,1.0589664628591424,-186986290294.3942,0.0,516332884653.0239,0.8048521915005701,-0.15553918747324957,0.5195879535428791,0.24093333005214093,-0.05859739816607187,-0.03892324570187205,-1.0763548619976855
15.0,-103.99269770920861,11.8377160884257,270.46940564356566,290.01433083248264,0,9.699684029643766,217.86619431635535,11.032382648589108,19.015646854785523,0.023415230694041694,0.015319918210572379,0.23709365314800918,0.13844023987886925,0.11703988414595488,0.07618215868605682,2.0606427945466694,1.1428592081076439,-186986290294.3942,0.0,516332884653.0239,0.7162561087863216,-0.18978027084798307,0.6366949506232552,0.2134951411016038,0.11703988414595488,0.07618215868605682,2.0606427945466694
15.2,-103.99035702315926,11.83923970781582,270.49515315177433,290.03756623800496,0,9.70237181946891,218.1870002605127,11.032376211712055,19.016505105059146,0.011703430246754506,0.007618096950601254,0.128737541043336,0.11531181687234437,-0.05855900223643615,-0.03850910629985576,-0.5417805605233678,1.035660371860664,-186986290294.3942,0.0,516332884653.0239,0.7134960630821235,-0.19003395386131375,0.6402868795474227,0.21176207456853716,-0.05855900223643615,-0.03850910629985576,-0.5417805605233678
15.3,-103.98801731574488,11.840754931176026,270.49829805707833,290.03972223537903,0,9.703318871113735,218.34486098772135,11.03237542548573,19.016609935235945,0.02339707414378689,0.015152233602062422,0.03144905303997758,0.11667414747061891,0.11693643897032216,0.0753413665146106,-0.9728848800335704,1.0249023192479048,-186986290294.3942,0.0,516332884653.0239,0.8745584586423456,-0.11628372061137777,0.3934801146766739,0.2584550214097832,0.11693643897032216,0.0753413665146106,-0.9728848800335704
15.5,-103.98567850856053,11.842261705092708,270.5246022155759,290.0634773649954,0,9.704813550534473,218.65546287267864,11.032368849446106,19.017486740519196,0.01169403592179212,0.0075338695834137595,0.13152079248783413,0.09506796945504666,-0.05851519110997405,-0.038091820093243446,0.5003586972392845,0.7127873601073704,-186986290294.3942,0.0,516332884653.0239,0.7131354338698583,-0.1888074027064948,0.6416859004149446,0.2098304621620472,-0.05851519110997405,-0.038091820093243446,0.5003586972392845
15.6,-103.98334076318032,11.843760016338369,270.5275997852747,290.0654961438503,0,9.705159438312679,218.80819022595023,11.03236810005368,19.017586659509156,0.02337745380202713,0.014983112456601387,0.029975696987776353,0.07645317744713745,0.11683417880235053,0.07449242873187653,-1.0154509550005812,0.7930510677775382,-186986290294.3942,0.0,516332884653.0239,0.8794337504554414,-0.11253372684407731,0.38412988292278516,0.2576367053200817,0.11683417880235053,0.07449242873187653,-1.0154509550005812
15.8,-103.9810039711563,11.845249791872345,270.55359412610414,290.0889629476347,0,9.705451234258522,219.1084638150948,11.032361601468473,19.018453137536806,0.011683960120123453,0.007448877669879965,0.12997170414735068,0.09615179501613427,-0.05846746840951808,-0.03767117393360691,0.499980035797869,0.7164038587208232,-186986290294.3942,0.0,516332884653.0239,0.7139004934071208,-0.18719213547145455,0.6418363569520549,0.20820970396506636,-0.05846746840951808,-0.03767117393360691,0.499980035797869
15.91,-103.97866838401727,11.846731058841534,270.5564922999282,290.0908892766801,0,9.70515674847293,219.2706541433393,11.032360876925017,19.01854974333094,0.021232610354812578,0.013466063356272175,0.026347034764223252,0.11622841412413151,0.08680591122444703,0.054701688058111285,-0.9420424489375269,0.7828592600009013,-186986290294.3942,0.0,516332884653.0239,0.8828752740558594,-0.10971729023888357,0.37785211045731765,0.2563613646912863,0.08680591122444703,0.054701688058111285,-0.9420424489375269
16.1,-103.97633386326766,11.848203734581137,270.5830475705572,290.11487994922334,0,9.704293744548353,219.54582189342418,11.032354238107361,19.019434919018572,0.012286951313755122,0.007750924945276978,0.13976458225783878,0.11317521360141995,-0.04708241600556524,-0.03007967584734294,0.5969344604927093,0.7994019730172199,-186986290294.3942,0.0,516332884653.0239,0.7135478595511885,-0.18592953901602072,0.643224419437983,0.20625713294302594,-0.04708241600556524,-0.03007967584734294,0.5969344604927093
16.21,-103.9740005203864,11.849667806615361,270.60848900375976,290.1378323008539,0,9.703565010561551,219.70223234012272,11.032347877749059,19.02028296679199,0.021212208011434197,0.013309745765675278,0.23128575638690105,0.1385286084006243,0.08113869725162838,0.05053473473089389,0.8320106739005704,1.168952487979849,-186986290294.3942,0.0,516332884653.0239,0.7151725921743244,-0.1847128908478397,0.6419182086178831,0.20579194542571252,0.08113869725162838,0.05053473473089389,0.8320106739005704
16.4,-103.97166855682579,11.851123262658149,270.6125003672751,290.1407974417001,0,9.701337766311099,219.96736217026677,11.03234687490818,19.02041667890917,0.01227349242424838,0.007660294962039657,0.021112439554527854,0.15697134390959241,-0.04704587151150486,-0.02973395159808257,-1.1061753517493458,1.102140551343886,-186986290294.3942,0.0,516332884653.0239,0.8504640554073318,-0.1283882881731731,0.4481910191627202,0.2436229633305517,-0.04704587151150486,-0.02973395159808257,-1.1061753517493458
16.5,-103.9693377940104,11.852570010613876,270.63810133082444,290.16389938987095,0,9.700111070216082,220.1043312027646,11.032340474667294,19.021270044360815,0.023307628153900976,0.014467479557271694,0.25600963549322475,0.13728698039291437,0.11034135729652439,0.06807184595231941,2.348971959386936,1.2051372760021315,-186986290294.3942,0.0,516332884653.0239,0.7153142570129567,-0.1832686565248369,0.6427597350925305,0.20395596630979743,0.11034135729652439,0.06807184595231941,2.348971959386936
16.71,-103.96700838333581,11.854008068578059,270.6649750661221,290.1881890549907,0,9.69661737315813,220.3861572640814,11.032333756233468,19.022165835537404,0.011092431783765688,0.00684789506753835,0.12797016808414238,0.1162710624042079,-0.05816760176254875,-0.03628373566539673,-0.6097117495670564,1.132172869247431,-186986290294.3942,0.0,516332884653.0239,0.7138780917797876,-0.18301598549811385,0.6448518183815838,0.20260639540490444,-0.05816760176254875,-0.03628373566539673,-0.6097117495670564
16.8,-103.96468050616761,11.855437414838084,270.66760024688773,290.1898620084025,0,9.69476240686503,220.5045198979427,11.032333099938278,19.022253341562923,0.025865301868874608,0.01588162511138891,0.029168675173549617,0.11870310400329956,0.16414300094565493,0.10037477826500636,-1.0977943656732545,1.1140810612242689,-186986290294.3942,0.0,516332884653.0239,0.8926983035319529,-0.10153655356757506,0.35941563116412545,0.25219133854215847,0.16414300094565493,0.10037477826500636,-1.0977943656732545
17.01,-103.96235398384026,11.856857977873876,270.69424834885643,290.21394214634336,0,9.690013423783132,220.775021494724,11.032326437912786,19.023141611628546,0.01107867774929138,0.006764585884722564,0.1268957236604923,0.095529146927017,-0.0704124958075389,-0.043414472507934794,0.46536689755686794,0.765071451948337,-186986290294.3942,0.0,516332884653.0239,0.7145090121165427,-0.18139167955100702,0.6451478464376239,0.20089347035382446,-0.0704124958075389,-0.043414472507934794,0.46536689755686794
17.11,-103.96002908765583,11.85826977635861,270.6968666497905,290.2156092011758,0,9.687343775459846,220.90102607307088,11.032325783337551,19.02322888832635,0.023248961844331503,0.014117984847335252,0.02618300934045748,0.0764169694249508,0.12170284095040383,0.07353398962612845,-1.0071271432003697,0.859177926204796,-186986290294.3942,0.0,516332884653.0239,0.8931669343614288,-0.10075522558965078,0.3600358872961516,0.2499507386239507,0.12170284095040383,0.07353398962612845,-1.0071271432003697
17.3,-103.95770562888302,11.859672719159402,270.7236344294899,290.23980194890424,0,9.681944023696332,221.13542212361364,11.032319091392628,19.024121147649666,0.012228730383194285,0.007383909477856121,0.14088305104953658,0.09645442884585652,-0.05800121821651128,-0.03544250194462677,0.6036844300477807,0.7625248881162519,-186986290294.3942,0.0,516332884653.0239,0.7147176951944475,-0.17988192033192174,0.6459123054437123,0.19904372532191375,-0.05800121821651128,-0.03544250194462677,0.6036844300477807
17.41,-103.95538392875595,11.861066835337978,270.7260634698026,290.2412930582122,0,9.67836121181027,221.26811091169353,11.03231848413255,19.02420211566009,0.021106364791540547,0.01267378344159592,0.02208218466121677,0.12205273626908468,0.0807057673486028,0.048089763306725694,-1.0800078762574583,0.8945353809116782,-186986290294.3942,0.0,516332884653.0239,0.8999915879044982,-0.09548214837255124,0.3444884555658479,0.24945140814426925,0.0807057673486028,0.048089763306725694,-1.0800078762574583
17.6,-103.95306374847303,11.862452034151378,270.75296185463577,290.2656086828312,0,9.671838252821594,221.49206935496062,11.032311759536341,19.02509872848786,0.01221147517327373,0.007290520070528261,0.14157044649024053,0.11945687268979677,-0.04681520851719346,-0.02833296511088223,0.628885588573805,0.9248202042558689,-186986290294.3942,0.0,516332884653.0239,0.7149128368107034,-0.1783598974698536,0.6466908793812485,0.19717578264818278,-0.04681520851719346,-0.02833296511088223,0.628885588573805
17.7,-103.95074527919586,11.86382831505263,270.778374169965,290.2885388445759,0,9.66823268727574,221.6072705583609,11.032305406457509,19.0259458056655,0.023184692771707698,0.013762809012512216,0.2541231532922038,0.13562106727363468,0.10973217598434201,0.06472288941984093,1.1255270680196567,1.1680057989207913,-186986290294.3942,0.0,516332884653.0239,0.716961609358264,-0.1769985585010438,0.6449175732158594,0.19677114817047525,0.10973217598434201,0.06472288941984093,1.1255270680196567
17.9,-103.9484287520481,11.865195677691414,270.7825354038452,290.29164677652057,0,9.6599671980035,221.83212031178587,11.032304366149038,19.026084513461505,0.01158263573877609,0.006836813193924509,0.02080616940105536,0.1564335122443355,-0.05801028516465825,-0.034629979092938655,-1.1665849194557463,1.0409794184879846,20.687109828941953,0.0,-0.1045152017108805,0.8472850585431232,-0.1259579497001592,0.46118639985374704,0.2314081439077893,-0.05801028516465825,-0.034629979092938655,-1.1665849194557463
18.01,-103.94611384811432,11.866554011914742,270.80685464642,290.31355843592644,0,9.655308430259389,221.95262027996372,11.032298286338394,19.026895154880666,0.021044581216177003,0.012348492939343963,0.22108402340718197,0.1360217239457137,0.08601768615818779,0.050106179503811854,1.8207077636920106,1.1288922775009704,6.8194652667132685,0.0,0.10040810887975482,0.7188177673506572,-0.17495101815813274,0.6438497906263574,0.1953218003624914,0.08601768615818779,0.050106179503811854,1.8207077636920106
18.2,-103.94380083843888,11.867903347767609,270.83277208993167,290.33696165064805,0,9.64654597866023,222.15543897824057,11.032291806977517,19.02775906966439,0.012173735133932355,0.007101767646666786,0.1364075974298614,0.11028972021438244,-0.04668866359076187,-0.02761434364566968,-0.44566539988063997,0.9993936667419627,6.8194652667132685,0.0,0.10040810887975482,0.7168180755923207,-0.17480904097718075,0.6465715571617864,0.1938011020766994,-0.04668866359076187,-0.02761434364566968,-0.44566539988063997
18.3,-103.94148990402478,11.86924367549366,270.8357792287307,290.3389942452279,0,9.641546575953903,222.25947103435806,11.032291055192816,19.027859307624357,0.023109344140976543,0.013403277260515076,0.030071387990346494,0.11327740514371132,0.10935609007044034,0.06301509613848201,-1.0633620943951338,0.9608754060314757,6.8194652667132685,0.0,0.10040810887975482,0.8808663068802864,-0.10645191697369517,0.39571618647937484,0.23696252558987282,0.10935609007044034,0.06301509613848201,-1.0633620943951338
18.5,-103.93918078583265,11.870574895535857,270.8610167592846,290.36176444334745,0,9.631160573543445,222.46189603116898,11.032284745810179,19.02870055864282,0.01154559096065104,0.006656100210982198,0.12618765276954536,0.0955800101134949,-0.057818765901627725,-0.033735885247664514,0.48058132389599606,0.7008248593408057,6.8194652667132685,0.0,0.10040810887975482,0.7180456969030343,-0.17293081814494315,0.646205375297541,0.19215598411530288,-0.057818765901627725,-0.033735885247664514,0.48058132389599606
18.6,-103.93687385477944,11.871897058537122,270.86396658018765,290.3637444276159,0,9.625582231959704,222.56027997522926,11.032284008354953,19.028798886006257,0.02306931053212192,0.013221630012658449,0.029498209030407032,0.07992957149469658,0.11523719571470716,0.06565529801676158,-0.9668944373913695,0.7745409853457179,6.8194652667132685,0.0,0.10040810887975482,0.8828987793352205,-0.1045832834662947,0.39280236306010524,0.235071022974299,0.11523719571470716,0.06565529801676158,-0.9668944373913695
18.8,-103.93456881173748,11.873210055340985,270.8906227921698,290.3878393249787,0,9.614058616464888,222.75136889183602,11.032277344301956,19.02968742640566,0.011525215209786707,0.006564984019314958,0.13328105991064423,0.11464362987814616,-0.057720476611676265,-0.03328322996671757,0.5189142544011879,0.721708322947251,6.8194652667132685,0.0,0.10040810887975482,0.7165884860905559,-0.17182818133633138,0.6488148680966822,0.18977693389286998,-0.057720476611676265,-0.03328322996671757,0.5189142544011879
18.9,-103.93226608753322,11.874513966992218,270.89588279810465,290.39197532474367,0,9.607930057710307,222.8440653715732,11.032276029300473,19.029862759936822,0.023027242042559726,0.013039116512328086,0.05260005934872082,0.1761307923037582,0.11502026832773264,0.06474132493013267,-0.8068100056192513,1.0657263389396525,6.8194652667132685,0.0,0.10040810887975482,0.8232067994707113,-0.13367574115166095,0.5073656243094743,0.21689049034432023,0.11502026832773264,0.06474132493013267,-0.8068100056192513
19.1,-103.92996543294618,11.875808674737485,270.9385601030191,290.43101745039155,0,9.595425463610212,223.02374177495693,11.032265359974245,19.031285336767304,0.011503272935229184,0.006473538726332514,0.2133865245721692,0.24331079326772587,-0.05761984553665189,-0.03282788892997739,0.8039323261172304,0.9301588910520522,6.8194652667132685,0.0,0.10040810887975482,0.7048094691219623,-0.17362680143595513,0.6625584209450099,0.1846989033372749,-0.05761984553665189,-0.03282788892997739,0.8039323261172304
19.2,-103.92766698870784,11.877094150025973,270.981912714101,290.47069103328994,0,9.589110074511659,223.11071371301512,11.032254521821475,19.032730423803365,0.02298444238334745,0.012854752884887962,0.4335261108190117,0.29927554184584004,0.11481169448118508,0.06381214158555584,2.201395862468472,0.9050414924283796,6.8194652667132685,0.0,0.10040810887975482,0.7046856729532485,-0.172852669300802,0.663177862798349,0.1836713895636147,0.11481169448118508,0.06381214158555584,2.201395862468472
19.4,-103.92537111550047,11.87837059451003,271.05698944070764,290.53996278332335,0,9.575799922451477,223.27890573501014,11.032235752639822,19.03523298135692,0.01147936603686621,0.006382222420286987,0.3753836330332674,0.3489529319224861,-0.0575253817324064,-0.03236265232300499,-0.2907123889287227,0.8482878341676875,6.8194652667132685,0.0,0.10040810887975482,0.6963352869373302,-0.17435021269533799,0.6723973985746518,0.18055722053974274,-0.0575253817324064,-0.03236265232300499,-0.2907123889287227
19.5,-103.92307735395603,11.87963767004577,271.0982826943736,290.57771882531944,0,9.568902256951475,223.36011834377368,11.032225429326406,19.036609423145787,0.022937615444362465,0.012670755357397742,0.41293253665969,0.3378837425484417,0.11458249407496093,0.06288532937110665,0.3754890362642207,0.9894793221686833,6.8194652667132685,0.0,0.10040810887975482,0.7060623322515297,-0.1708633176630058,0.6626760272974864,0.18204997252936458,0.11458249407496093,0.06288532937110665,0.3754890362642207
19.7,-103.92078624465512,11.88089561869371,271.1596807888186,290.63423401227806,0,9.554338420270977,223.5167587098137,11.032210079802795,19.038656026293953,0.01145554650456408,0.0062897432396980205,0.30699047222498277,0.32184018114265733,-0.05741034469899213,-0.03190506058849872,-0.529710322173538,0.7464290593989775,6.8194652667132685,0.0,0.10040810887975482,0.6993530125550071,-0.17189037651640104,0.6702147433705888,0.1793634858603661,-0.05741034469899213,-0.03190506058849872,-0.529710322173538
19.8,-103.91849720812571,11.88214398271938,271.1753096399552,290.64804827479384,0,9.54662900696317,223.59217950532195,11.03220617259001,19.03917698799851,0.02289036529404565,0.012483640256703944,0.15628851136568533,0.311043277096398,0.11434818789481409,0.06193897017005835,-1.507019608592953,0.7582317496993871,6.8194652667132685,0.0,0.10040810887975482,0.7394164501035104,-0.15967518219813348,0.6262805530196806,0.18852007430424705,0.11434818789481409,0.06193897017005835,-1.507019608592953
20.0,-103.91621091484222,11.883383204593937,271.2460833658961,290.7133148457839,0,9.531055687310324,223.73720556134907,11.032188479158526,19.041536112196535,0.011431466417448672,0.006196109372780278,0.3538686297045514,0.31201746166971767,-0.0572944943829851,-0.03143765441961844,0.9879005916943339,0.7774273551607603,6.8194652667132685,0.0,0.10040810887975482,0.6978830724627926,-0.17058856169185702,0.6727107252681922,0.17697186188470435,-0.0572944943829851,-0.03143765441961844,0.9879005916943339
20.1,-103.91392714522425,11.884612936994776,271.2781414869612,290.7424604835436,0,9.522962541520014,223.80680437628936,11.03218046462826,19.042604716232038,0.022837696179749074,0.012297324008389945,0.32058121065119394,0.3344476149375396,0.11406229762300239,0.0610121463560958,-0.33287419053357,0.6964120136703856,6.8194652667132685,0.0,0.10040810887975482,0.7127625580177867,-0.16574897540195416,0.6574224343071285,0.17970129635267762,0.11406229762300239,0.0610121463560958,-0.33287419053357
20.3,-103.91164595963556,11.88583335280612,271.36182832568534,290.8197810892341,0,9.506429765559973,223.94015811381485,11.032159542918578,19.045394277522846,0.01140592794342869,0.006102079056722353,0.41843419362067075,0.3955530007671733,-0.057158841181602124,-0.03097622475833807,0.48926491484738577,0.47538759626162824,6.8194652667132685,0.0,0.10040810887975482,0.6963996983146838,-0.16926384514610496,0.6752036317203352,0.1745773943706423,-0.057158841181602124,-0.03097622475833807,0.48926491484738577
20.4,-103.9093674183829,11.887044245119627,271.40369080682416,290.8580785223958,0,9.497894209975001,224.00390710958922,11.032149077298294,19.046789693560804,0.022785412526645163,0.01210892313507043,0.4186248113882219,0.41493014161270353,0.11379484583216715,0.060068440783482044,0.0019061776755114185,0.2942316642515269,6.8194652667132685,0.0,0.10040810887975482,0.7069115699667317,-0.16564745905198935,0.6646806653562056,0.17617197466799828,0.11379484583216715,0.060068440783482044,0.0019061776755114185
20.51,-103.90709124171492,11.888245727234983,271.4546631573614,290.9048781761174,0,9.488348336249008,224.0717720395872,11.032136334210659,19.048488771912044,0.020692515163421393,0.010922564685051026,0.4633850048838252,0.4061264001178378,-0.019026339665670123,-0.010785076818357924,0.4069108499600193,0.39628410493454486,1079387591517.0697,0.0,-307826748028.74146,0.7034533523035007,-0.1656880613336703,0.6688291208232057,0.17426547163254805,-0.019026339665670123,-0.010785076818357924,0.4069108499600193
20.7,-103.90481821982114,11.889437772660493,271.54031340651494,290.9840404296298,0,9.471331260063305,224.1834088667562,11.03211492164837,19.051343780217167,0.0119632731251854,0.006273923292158507,0.45079078501873876,0.530478324207402,-0.04594337914861103,-0.02446653364680302,-0.06628536771098219,1.8233145562486732,1079387591517.0697,0.0,-307826748028.74146,0.6967934291888871,-0.16655981200924333,0.676225803163425,0.17162578244138532,-0.04594337914861103,-0.02446653364680302,-0.06628536771098219
20.9,-103.90254781283068,11.890620205113649,271.5957763857436,291.0350357627663,0,9.452386930748661,224.29326263823438,11.032101055903563,19.053192546191454,0.011352034952310004,0.005912162265779862,0.27731489614325355,0.5174866476442753,-0.0030561908643769926,-0.001808805131893233,-0.8673794443774291,3.170646574655252,1079387591517.0697,0.0,-307826748028.74146,0.7024818207399711,-0.16421113125067918,0.6708069991723774,0.17196501319913124,-0.0030561908643769926,-0.001808805131893233,-0.8673794443774291
21.0,-103.9002801608113,11.89179304852175,271.6997844287526,291.1313377464449,0,9.443416577585273,224.3452378494807,11.032075053892811,19.05665948095842,0.022676520193698157,0.011728434081010708,1.0400804300900142,0.48941007440654777,0.11324485241387992,0.058162718152307634,7.6276553394674975,3.1219355671168576,1079387591517.0697,0.0,-307826748028.74146,0.6954432609792772,-0.16509608788154498,0.6785822645149057,0.1691982943487922,0.11324485241387992,0.058162718152307634,7.6276553394674975
21.1,-103.89801557376825,11.892956337022413,271.7351389714996,291.1635722449866,0,9.433587048984613,224.39524216856668,11.032066215257124,19.057837965716654,0.02264587043057954,0.011632885006633677,0.3535454274702892,0.43675085822633586,-0.00030649763118617123,-0.0009554907437702955,-6.865350026197152,3.380960924357589,1079387591517.0697,0.0,-307826748028.74146,0.7115506081496955,-0.16012443396740939,0.6621539977580543,0.17206969791756424,-0.00030649763118617123,-0.0009554907437702955,-6.865350026197152
21.3,-103.89575396164312,11.894110124964207,271.7998076522006,291.22316698143425,0,9.413353756789146,224.4893293283274,11.03205004808695,19.059993588406687,0.011308060625623324,0.005768939708969988,0.32334340350502205,0.48997143282261957,-0.05668904902478128,-0.029319726488318553,-0.15101011982633636,3.5652936458544118,1079387591517.0697,0.0,-307826748028.74146,0.7008838569738004,-0.16197069261832714,0.6739068116740178,0.16845451298682546,-0.05668904902478128,-0.029319726488318553,-0.15101011982633636
21.4,-103.89349532431282,11.895254196907189,271.81840581133497,291.2397657960321,0,9.402844921386642,224.53340798736608,11.032045398547165,19.0606135270445,0.0225863733030001,0.011440719429814084,0.18598159134342437,0.3378546010183944,0.11278312677377017,0.056717797208442174,-1.3736181216160062,2.3035902859608646,1079387591517.0697,0.0,-307826748028.74146,0.7326850407182356,-0.15277344285190095,0.6396989486801616,0.17498045983592125,0.11278312677377017,0.056717797208442174,-1.3736181216160062
21.6,-103.89123966158841,11.896388677623449,271.9271190916509,291.3404740839755,0,9.382038112473875,224.61562566862588,11.032018220227087,19.06423730305503,0.011278313622042742,0.00567240358130042,0.5435664015797592,0.6099354977246078,-0.05654029840478599,-0.028841579242567913,1.7879240511816488,3.800940169931684,-2019205324220.8335,0.0,329953122412.78815,0.695940619315914,-0.16136363756215505,0.6799649288159482,0.1651548559359183,-0.05654029840478599,-0.028841579242567913,1.7879240511816488
21.8,-103.88898713321407,11.897513412097696,271.9830243381707,291.3918976243061,0,9.360038138624455,224.68991180060564,11.032004243915457,19.066100811272356,0.011262641871709929,0.005623672371237751,0.2795262325989266,0.7747518143961771,-7.835875166406694e-05,-0.00024365605031334298,-1.3202008449041678,4.799493477636036,1550861231109.4507,0.0,649568850999.5674,0.7035465631970618,-0.15858052355443347,0.6725751100285485,0.16588300796914213,-7.835875166406694e-05,-0.00024365605031334298,-1.3202008449041678
21.9,-103.88673785886594,11.89862860552781,272.1544924981951,291.55119525153583,0,9.350226709833542,224.72407635352403,11.03196137687545,19.071816416606502,0.02249274348130873,0.011151934301132609,1.7146816002440712,1.04316452350775,0.11230101609599043,0.05528261929894976,14.35155367645175,4.906011544140754,2452664638129.5576,0.0,326390806326.97174,0.6934845106445242,-0.16011683058148526,0.6834051658501729,0.16247834732653624,0.11230101609599043,0.05528261929894976,14.35155367645175
22.01,-103.88449149815101,11.899733903325368,272.2807118213085,291.6682657930372,0,9.338622115317586,224.75936147849427,11.031929822044672,19.07602372737695,0.02042146104486109,0.010048161795982275,1.147448391939871,1.2940957909311395,-0.018829840331341694,-0.010034295501366402,-5.156665530038044,5.085749456655077,1226332319064.782,0.0,163195403163.23944,0.6955017910847857,-0.15866363460526217,0.6818433081934084,0.1618419374685426,-0.018829840331341694,-0.010034295501366402,-5.156665530038044
22.21,-103.88224854060611,11.900829431116176,272.58665375938295,291.95313855264254,0,9.317787581159998,224.81734819391818,11.031853336560154,19.086221791979433,0.011214787724469528,0.005477638954038985,1.529709690372277,1.6817339225189234,-0.04603336660195797,-0.02285261420971653,1.9113064921620373,5.263742218245558,0.051201414787403275,0.0,-0.41587765474418364,0.6917436076301454,-0.15860743407835243,0.6861226400079973,0.15990680419034295,-0.04603336660195797,-0.02285261420971653,1.9113064921620373
22.31,-103.8800088656968,11.901915214740857,272.7664734665825,292.12028494288444,0,9.307399413942523,224.84335436165958,11.031808381633354,19.092215782219416,0.02239674909319026,0.010857836246813921,1.7981970719955982,1.841230056887079,0.11181961368720972,0.053801972927750505,2.684873816233268,2.6876769572759165,0.18039142645745904,0.0,-0.4171691219970567,0.6939249080242108,-0.1571470089494318,0.6843863587925106,0.15933722572131961,0.11181961368720972,0.053801972927750505,2.684873816233268
22.5,-103.87777242281618,11.902991130255337,273.18788619936754,292.513066319185,0,9.288025255769519,224.88727439718247,11.031703028450158,19.106262873312254,0.011770752003240138,0.005662713234107254,2.217961751500139,2.1099400927323533,-0.05592630047342133,-0.027342752698455958,2.2092877868659886,1.6989846455247997,0.2693902345541358,0.0,-0.3361739307171313,0.6914365248035169,-0.15674499254574353,0.6873765006473426,0.15767081479235184,-0.05592630047342133,-0.027342752698455958,2.2092877868659886
22.7,-103.87553919128392,11.904057163931393,273.69034931649816,292.98164025793307,0,9.267613398223489,224.92572553980804,11.031577412670876,19.123011643883274,0.011166157661293181,0.005330168380277575,2.512315585653093,2.4415128993725137,-0.003022971709734795,-0.001662724269148403,1.471769170764777,2.8641438997357875,0.1052114197821731,0.0,-0.1804215411985203,0.6913434871430613,-0.15577689133695305,0.6879470178979097,0.1565459787910247,-0.003022971709734795,-0.001662724269148403,1.471769170764777
22.81,-103.87330951034511,11.905113462257171,273.9643728790383,293.2368901795712,0,9.256101927167604,224.94346972623535,11.03150890678024,19.132145762634607,0.020269826716463102,0.009602712052531603,2.491123295819568,2.676194341423483,0.08276062777427243,0.038841306111400464,-0.19265718030477627,2.5428777328146897,221203211080.81827,0.0,171600801168.21124,0.6929748793706488,-0.15444760483614628,0.6867636094566029,0.1558444694166302,0.08276062777427243,0.038841306111400464,-0.19265718030477627
22.9,-103.8710832991692,11.906159891937701,274.25124855035875,293.5041838211953,0,9.24717363829193,224.9561900051043,11.03143718786241,19.14170828501196,0.02473567973232274,0.011626996450332525,3.187507459116058,2.5361386366458953,0.049620589065107176,0.022492048864454724,7.737601814405459,3.5549235859457156,442406422161.5741,0.0,343201602336.52594,0.6930621823604672,-0.15344303923624342,0.6871448327158469,0.15476441439685604,0.049620589065107176,0.022492048864454724,7.737601814405459
23.1,-103.86886039684889,11.907196349895422,274.84559879614056,294.05887958479354,0,9.226466544080347,224.97866237724656,11.031288600300964,19.161519959871352,0.011114511601561914,0.005182289788603282,2.971751228909014,3.242824657630135,-0.06810584065380317,-0.03222353330864576,-1.0787811510352043,12.316710690548778,234751262505.5786,0.0,693474816062.3076,0.6917712351361198,-0.1527172864270904,0.6889224457073165,0.15334879349131786,-0.06810584065380317,-0.03222353330864576,-1.0787811510352043
23.3,-103.86664101239907,11.908222943270683,275.1491332843781,294.34185980932045,0,9.20226010777742,224.99313866120556,11.031212716678905,19.171637776145936,0.011096922249080916,0.005132966876306729,1.5176724411875906,3.3011129978150118,-8.794676240498862e-05,-0.0002466145614827683,-7.270393938607144,15.537171547970662,234751262505.5786,0.0,693474816062.3076,0.6933567846206897,-0.15136760618474726,0.6877935097822702,0.15259195561937042,-8.794676240498862e-05,-0.0002466145614827683,-7.270393938607144
23.4,-103.86442534475573,11.909239639422237,275.7537059853818,294.90634989036425,0,9.19446664599207,224.9973774103485,11.031061573503655,19.191790199512727,0.02215667643341182,0.010166961515541079,6.045727010037596,3.1123297227245983,0.1105975418433114,0.05033994639234458,45.28054568850102,15.068007156662281,234751262505.5786,0.0,693474816062.3076,0.692202673374992,-0.15062492676564082,0.689417156456991,0.15123351081065442,0.1105975418433114,0.05033994639234458,45.28054568850102
23.6,-103.86221308277487,11.910246275927769,276.31023387178107,295.4260628568227,0,9.171923870258162,224.99985518102872,11.030922441532054,19.210341129059366,0.011061309904292058,0.005033182527656095,2.7826394319961483,3.080061143063914,-0.05547683264559802,-0.025668894939424557,-16.315437890207008,15.985230118267776,234751262505.5786,0.0,693474816062.3076,0.6925575773157124,-0.1495043153806193,0.6895395823823239,0.1501586697902379,-0.05547683264559802,-0.025668894939424557,-16.315437890207008
23.7,-103.86000492523146,11.911242900584366,276.53459161852595,295.63517837383756,0,9.159901392705136,224.9980940924433,11.030866352095368,19.21781972061753,0.022081575434072437,0.009966246565973547,2.2435774674489064,3.311859620436004,0.11020265529780614,0.04933064038317558,-5.390619645472533,14.665342211003937,234751262505.5786,0.0,693474816062.3076,0.6950006744746294,-0.1479690486028249,0.687536473989961,0.1495754661327744,0.11020265529780614,0.04933064038317558,-5.390619645472533
23.8,-103.85780040081832,11.912229741409012,276.81562460289035,295.89733683457956,0,9.148306213142776,224.99433309597197,11.030796093849277,19.22718748676301,0.022045244131447504,0.009868408246464925,2.8103298436439728,2.6424179380889408,-0.000363313026249321,-0.000978383195086207,5.667523761950583,5.658889179138754,234751262505.5786,0.0,693474816062.3076,0.6944715379245108,-0.1470758956343076,0.6885285885116281,0.14834536304959464,-0.000363313026249321,-0.000978383195086207,5.667523761950583
24.0,-103.85559981814507,11.913206386639066,277.3509620044733,296.3974801255978,0,9.124435981147034,224.98081213686774,11.03066225949888,19.245032066815778,0.01100291336626928,0.00488322615026961,2.676687007914618,2.762689159280554,-0.05521165382589132,-0.024925910480976664,-0.6682141786467756,3.0814242681838864,234751262505.5786,0.0,693474816062.3076,0.6932953525275861,-0.14627664371101406,0.6901844084369364,0.14693597251472237,-0.05521165382589132,-0.024925910480976664,-0.6682141786467756
24.1,-103.85340298573706,11.914173194732768,277.6208081052008,296.649270903565,0,9.11231926788499,224.9710527751641,11.0305947979737,19.254026936840027,0.021968324080034705,0.009668080937021846,2.698461007275303,2.8607514194162835,0.1096541071376527,0.047848547867521685,0.21773999360684607,3.3034179295056925,234751262505.5786,0.0,693474816062.3076,0.6950393841919433,-0.1448814058746928,0.6888848015328084,0.1461757944085136,0.1096541071376527,0.047848547867521685,0.21773999360684607
24.3,-103.85120941203427,11.915129804369688,278.29760828932797,297.28202568294876,0,9.089057586037809,224.94553845617358,11.030425597927668,19.2765869429776,0.010967868513986938,0.004783048184595646,3.384000920635811,2.9586763895268677,-0.05500227783023903,-0.02442516376213109,3.427699566802552,2.7361609969681844,234751262505.5786,0.0,693474816062.3076,0.6934345821249227,-0.1441145991574128,0.6909870121641742,0.14462507266500918,-0.05500227783023903,-0.02442516376213109,3.427699566802552
24.4,-103.84902041539027,11.916076504451201,278.57099984343995,297.53724787708495,0,9.07657999510314,224.9297846328522,11.03035725003914,19.285699994781332,0.021889966439943474,0.009467000815135608,2.7339155411198717,3.0448204436566306,0.10922097925956768,0.04683952630540062,-6.500853795159532,2.952732131393937,234751262505.5786,0.0,693474816062.3076,0.695444178379181,-0.14269075601893527,0.689403905393611,0.1439409536347722,0.10922097925956768,0.04683952630540062,-6.500853795159532
24.6,-103.84683477407118,11.917013344100956,279.2310072564529,298.1545500459283,0,9.052371332556314,224.8922871593628,11.030192248185886,19.307700241881765,0.010928206595437317,0.004684198248776572,3.3000370650648376,3.0941441497482267,-0.05480879922253001,-0.02391401283179484,2.8306076197247894,3.0740490275265673,13401658026.383001,0.0,-5983048450.894782,0.6939089840396998,-0.14193689232537599,0.6914133823102319,0.14244920227341165,-0.05480879922253001,-0.02391401283179484,2.8306076197247894
24.71,-103.84465359625457,11.917939892665341,279.57281681961564,298.47396750180013,0,9.03862899354893,224.8682612775204,11.030106795795096,19.319093893987187,0.019828889241905987,0.008423168767134481,3.107359665115584,2.7483606539349332,0.08091529678607924,0.03399064107598117,-1.7516127268114043,3.6785009319967186,3774269000.6819763,0.0,353943824461.7577,0.6952901658612712,-0.14057788475154037,0.6904863269722932,0.14155591064911446,0.08091529678607924,0.03399064107598117,-1.7516127268114043
24.9,-103.84247647002837,11.918856489713933,280.13239722650997,298.9974565699882,0,9.014231019021729,224.82107954624416,11.029966900693372,19.337746574217,0.01145855908526697,0.004824194992589733,2.945160036285965,3.413546800688594,-0.04405436924546904,-0.01894196723444627,-0.8536822569980063,11.187828238636653,165658983417.49448,0.0,-364837686939.1048,0.6945791189696406,-0.139660840744092,0.6916532167164231,0.1402516483319745,-0.04405436924546904,-0.01894196723444627,-0.8536822569980063
25.1,-103.84030352338984,11.919762715039942,280.4634097730513,299.3068886620204,0,8.985495933958338,224.76364584287256,11.029884147556738,19.348780325768374,0.010864733192690169,0.004531126630045115,1.65506273270663,3.314446702999689,-0.002969129462883966,-0.0014653418127230696,-6.450486517896582,13.876972932537502,330665849976.13763,0.0,12509655387.4896,0.6958139715367522,-0.13829355124307455,0.6908825556557502,0.13928066983400922,-0.002969129462883966,-0.0014653418127230696,-6.450486517896582
25.2,-103.83813432424455,11.920659128660676,281.0694002574889,299.8740869350102,0,8.975355301623052,224.7319440989134,11.029732649935628,19.368980008582962,0.02169199145285507,0.008964136207332465,6.059904844376107,3.378125023119158,0.10827258260165132,0.044330095772874445,44.048421116695714,14.768854162416673,330665849976.13763,0.0,12509655387.4896,0.6949186992312008,-0.1373964497703969,0.692232352819547,0.13792964423654877,0.10827258260165132,0.044330095772874445,44.048421116695714
25.4,-103.83596989040527,11.921545380817951,281.6303069804064,300.3991706000967,0,8.94821553070147,224.66257787119167,11.029592423254899,19.38767689934688,0.010822169196416136,0.00443126078637947,2.8045336145874087,3.0774842328222496,-0.05434911128219486,-0.022664377104765057,-16.27685614894355,16.581694118389102,330665849976.13763,0.0,12509655387.4896,0.6952437085450751,-0.13625555098698341,0.6923507494397321,0.13682488919771016,-0.05434911128219486,-0.022664377104765057,-16.27685614894355
25.5,-103.8338096595909,11.922421181978574,281.9728816447214,300.7196537280074,0,8.935096251230048,224.6249164703611,11.02950677958882,19.39909605482405,0.021602308143684162,0.008758011606229008,3.4257466431500427,3.9663896340462452,0.10780138947267873,0.043267508198494765,6.212130285626253,24.606929436687672,330665849976.13763,0.0,12509655387.4896,0.6963914959831002,-0.13487677942580234,0.6916690936436287,0.13579765679990252,0.10780138947267873,0.043267508198494765,6.212130285626253
25.7,-103.83165416942552,11.923286782834712,282.2612687556854,300.9893702688422,0,8.904557128310831,224.54364546385537,11.029434682811079,19.408708958522848,0.010777450826893225,0.004328004280687041,1.4419355548201958,3.3264652520496667,-0.05412428658395488,-0.02215003662770991,-9.91905544164927,18.882264823263267,330665849976.13763,0.0,12509655387.4896,0.6970470971866409,-0.13365017875739638,0.6914553734878027,0.13473099308116399,-0.05412428658395488,-0.02215003662770991,-9.91905544164927
25.8,-103.8295025974372,11.924142514304366,282.8712275208833,301.5607437043223,0,8.893782090320075,224.50003947021156,11.029282193119778,19.429040917362776,0.021515719883211354,0.008557314696542185,6.099587651978508,3.3985102844656625,0.10738269056317977,0.04229310415855084,46.57652097158246,16.304029326940302,330665849976.13763,0.0,12509655387.4896,0.6957958982348645,-0.13278463055381087,0.6931595608312804,0.13328965870018786,0.10738269056317977,0.04229310415855084,46.57652097158246
26.01,-103.82735557105707,11.924988027531782,283.47189205023255,302.1235487128969,0,8.864007371422817,224.40203165560322,11.029132026987442,19.449063068341083,0.010223935143471821,0.0040262534638862025,2.860307282615578,3.347259451206682,-0.05377040352256898,-0.021576482060266494,-15.42514461601389,15.072351957072081,330665849976.13763,0.0,12509655387.4896,0.6960363631903096,-0.1316076637498781,0.6933676060642652,0.1321142188404284,-0.05377040352256898,-0.021576482060266494,-15.42514461601389
26.1,-103.8252134976182,11.925822893887846,283.7567132559826,302.39009991625113,0,8.851380837055933,224.3573630475999,11.029060821686004,19.45855710853275,0.023800815987505743,0.00927629284515065,3.164680063889596,3.6303275512751654,0.15085423160037714,0.05833377090293839,3.3819197919335364,13.40090695279208,-1241058336.5752368,0.0,396878203690.7951,0.6977331919012006,-0.13011015744416737,0.6921239649374357,0.1311646179748925,0.15085423160037714,0.05833377090293839,3.3819197919335364
26.2,-103.82307585435457,11.926647594970529,284.07366215271367,302.6868373939769,0,8.837259906350814,224.30585847190287,11.028981584461821,19.469122071757123,0.021376432636231357,0.008247010826831944,3.169488967310553,3.0418218916484348,-0.024243833512744385,-0.010292820183187272,0.04808903420956959,4.685445423927495,-1241058336.5752368,0.0,396878203690.7951,0.6976654089153285,-0.12897716774042348,0.6926402410558936,0.1299129088070154,-0.024243833512744385,-0.010292820183187272,0.04808903420956959
26.4,-103.82094306840007,11.927462312605261,284.6451221573353,303.22252248933444,0,8.80809645155065,224.19694427119282,11.028838719460666,19.488170738577843,0.010663929772505337,0.004073588173660895,2.8573000231082903,3.0635868216894195,-0.05356251431863029,-0.02086711326585532,-1.560944721011318,1.7886312335117078,-1241058336.5752368,0.0,396878203690.7951,0.6967585755401938,-0.12803732884943128,0.693980444017391,0.12854988585653213,-0.05356251431863029,-0.02086711326585532,-1.560944721011318
26.5,-103.81881460678744,11.928266278845339,284.9608242890851,303.51820568508305,0,8.793669325470615,224.13953948679304,11.028759793927728,19.498694142969505,0.021284616126279996,0.008039662400776023,3.157021317497834,2.721935399471762,0.10620686353774508,0.03966074227115072,2.997212943895395,2.6241233351261846,-1241058336.5752368,0.0,396878203690.7951,0.6981113749475627,-0.1265362288347371,0.693098274882996,0.12745145081685577,0.10620686353774508,0.03966074227115072,2.997212943895395
26.7,-103.81669116644719,11.929060235972344,285.55465056952715,304.07509977758406,0,8.764157845355884,224.018847306362,11.028611337357617,19.518488352317572,0.010617201701279593,0.003969785635025161,2.969131402210234,3.259673592152305,-0.0533370721250022,-0.020349383828754383,-0.939449576438004,11.416660523108625,-1241058336.5752368,0.0,396878203690.7951,0.6971478555596263,-0.1255897489713256,0.6944914736790132,0.1260701210798425,-0.0533370721250022,-0.020349383828754383,-0.939449576438004
26.9,-103.81457265420659,11.929843396496508,285.84594702254924,304.347978616679,0,8.731257634545745,223.89032966901024,11.028538513244362,19.528198234084975,0.010592561202997824,0.003915802620824152,1.4564822651104288,3.270233262706747,-0.00012320249140884742,-0.0002699150710050456,-7.563245685499053,17.00062941798523,-1241058336.5752368,0.0,396878203690.7951,0.6987465685344593,-0.12405432100844956,0.6933496768611049,0.12501993439868733,-0.00012320249140884742,-0.0002699150710050456,-7.563245685499053
27.0,-103.81245915678869,11.930616573157108,286.4317689743622,304.8975640535326,0,8.719077450211282,223.82314338951878,11.02839205775641,19.54772563247874,0.02113497417894875,0.007731766605996061,5.858219518129802,3.222625613498509,0.10542412975950775,0.038159639851718545,44.01737253019311,16.41517327150448,-1241058336.5752368,0.0,396878203690.7951,0.6975994342551272,-0.12312144224714804,0.6949246964492692,0.12359533183255615,0.10542412975950775,0.038159639851718545,44.01737253019311
27.1,-103.81035041081122,11.931378878922848,286.7227724534966,305.170271975806,0,8.703863605886283,223.75400942197925,11.028319306886626,19.557425748449887,0.021087459774662122,0.007623057657397572,2.910034791343564,3.210851287763132,-0.00047514404286626305,-0.0010870894859848718,-29.481847267861962,16.255309088611597,-1241058336.5752368,0.0,396878203690.7951,0.69917617360618,-0.12155575782821819,0.6938094875750401,0.1224960038168128,-0.00047514404286626305,-0.0010870894859848718,-29.481847267861962
27.3,-103.80824689278562,11.932131136992227,287.3065811908001,305.71817000624895,0,8.673204767092841,223.60991079962054,11.0281733547023,19.57688603969334,0.010517590128031922,0.0037612903468975524,2.9190436865175786,3.4958069994262884,-0.05284934823315119,-0.019308836552500167,0.045044475870073146,14.773656667733459,-1241058336.5752368,0.0,396878203690.7951,0.6980382187723204,-0.12059925029771856,0.6953722395246239,0.12106161430983568,-0.05284934823315119,-0.019308836552500167,0.045044475870073146
27.4,-103.80614807911591,11.932872480793918,287.5976008194355,305.9909963083254,0,8.65774556599126,223.5349525491609,11.02810059979514,19.586586693981186,0.020988136697042584,0.007413438016907905,2.9101962863541697,2.90343328134109,0.10470546569010886,0.036521476700104305,-0.08847400163409092,5.985243546591417,-1241058336.5752368,0.0,396878203690.7951,0.6996012757758042,-0.11901224846374397,0.6942707629798769,0.1199260076872855,0.10470546569010886,0.036521476700104305,-0.08847400163409092
27.6,-103.80405487609781,11.93360365398713,288.1738574748772,306.53199643241356,0,8.626536653598883,223.37923482686017,11.027956535631281,19.605795249162572,0.010466015090528764,0.0036558659660634353,2.88128327720837,2.8925816590022997,-0.052610608032568354,-0.018787860254222084,-0.14456504572899725,0.1729744499004206,8901420272.2375,0.0,220920407097.39658,0.6984879724561542,-0.11802858183166642,0.6958056091200587,0.11848358756367969,-0.052610608032568354,-0.018787860254222084,-0.14456504572899725
27.8,-103.8019668999176,11.934324000461988,288.75313209490827,307.07596408097316,0,8.595060011551368,223.2158053548394,11.027811716976272,19.625104403163608,0.01043988090103202,0.0036017323742854176,2.8963731001553685,2.8890937641988286,-0.00013067094748371808,-0.00027066795889008944,0.07544911473499365,0.2500885736187656,14127640867.4875,0.0,419146910474.0685,0.6987025189491233,-0.11669194638675652,0.6960434833955478,0.11713773467679929,-0.00013067094748371808,-0.00027066795889008944,0.07544911473499365
27.9,-103.79988337665121,11.935033634339838,289.0387099196172,307.3438410784505,0,8.579174033712953,223.13120773855115,11.027740322520096,19.63462366398724,0.020835232663927616,0.0070963387785029485,2.8557782470892943,2.8772201274151907,0.10395351762895817,0.03494606404217605,-0.4059485306607511,0.2735496151971421,14127640867.4875,0.0,419146910474.0685,0.7002864096579645,-0.11509450078070543,0.694909836602142,0.11598499615028698,0.10395351762895817,0.03494606404217605,-0.4059485306607511
28.0,-103.79780488226307,11.935732709973651,289.3288641913941,307.6160556082573,0,8.56326494222575,223.0446931867965,11.02766778395215,19.64429547304647,0.020784943881437517,0.006990756338129856,2.9015427177688067,2.5826337156640475,-0.000502887824900988,-0.0010558244037309143,0.45764470679511743,1.6851147052607058,14127640867.4875,0.0,419146910474.0685,0.700454553729939,-0.11377619047632899,0.695180710837749,0.11463932972068597,-0.000502887824900988,-0.0010558244037309143,0.45764470679511743
28.2,-103.7957325026052,11.936421111948333,289.89904265492737,308.15172750928645,0,8.531146354983381,222.8659287422218,11.027525239336267,19.663301421830912,0.010361898289303931,0.003442009873406716,2.850892317666488,3.1085555627893675,-0.052115227960668115,-0.01774373232361576,-0.25325200051159324,9.90531381247156,14127640867.4875,0.0,419146910474.0685,0.6993703871274091,-0.11268698321444838,0.6966969995640993,0.11311938923838835,-0.052115227960668115,-0.01774373232361576,-0.25325200051159324
28.4,-103.79366451341623,11.937098905081085,290.1807087571993,308.41605479971986,0,8.495889790185657,222.67954380099016,11.0274548228107,19.672690291906644,0.010339945944863907,0.003388965663759803,1.4083305113595708,3.046510355531324,-0.00010976172220011943,-0.0002652210482345661,-7.212809031534613,12.801580049858558,14127640867.4875,0.0,419146910474.0685,0.7009510457578446,-0.11107887272990878,0.6955562227803102,0.1119404146661258,-0.00010976172220011943,-0.0002652210482345661,-7.212809031534613
28.5,-103.79160271032018,11.937765734421726,290.73330484748254,308.9353679840592,0,8.482289073159915,222.58350394593364,11.027316673788128,19.69111016158275,0.020618030960548303,0.006668293406413189,5.525960902832516,2.9352544200416366,0.1027808501568425,0.032793277426533395,41.17630391472886,13.111357812052782,14127640867.4875,0.0,419146910474.0685,0.699844150641653,-0.10992593491656762,0.6971051569076046,0.1103578445703156,0.1027808501568425,0.032793277426533395,41.17630391472886
28.7,-103.78954607882577,11.938421645253039,291.2424276773347,309.4138773003178,0,8.448956378632584,222.3857508088605,11.027189393080667,19.708080922577825,0.010283157472059693,0.0032795541565633474,2.5456141492608797,2.808203650132932,-0.051674367442443234,-0.016943696249249268,-14.901733767858234,13.318907578300436,14127640867.4875,0.0,419146910474.0685,0.700178645638332,-0.10848790405184153,0.697216166270564,0.10894887038187531,-0.051674367442443234,-0.016943696249249268,-14.901733767858234
28.8,-103.78749388432516,11.93906730309106,291.47695240059505,309.6339758417918,0,8.432008223328172,222.28404631583962,11.027130761899851,19.715898413353166,0.020521945006066453,0.006456578380209429,2.3452472326033225,2.9331939207868287,0.10238787534006615,0.03177024223646037,-2.003669166575544,12.058923010089455,14127640867.4875,0.0,419146910474.0685,0.7021085974201176,-0.10685763105210053,0.6956974835203096,0.10784236430177696,0.10238787534006615,0.03177024223646037,-2.003669166575544
28.9,-103.78544700209305,11.939702263685447,291.69850797337904,309.84188718355233,0,8.414878653080097,222.1804625388317,11.027075373006655,19.723283599112634,0.020468822321078488,0.00634960594387848,2.215555727839889,2.0215302773332673,-0.0005312268498796598,-0.001069724363309514,-1.2969150476343627,4.889303118801337,14127640867.4875,0.0,419146910474.0685,0.702497640468923,-0.10543335209685577,0.6957352497097753,0.10645814065863005,-0.0005312268498796598,-0.001069724363309514,-1.2969150476343627
29.1,-103.78340605728567,11.940325563019744,292.1051671540734,310.22410516513946,0,8.380107565583263,221.96767563099903,11.02697370821148,19.736838905135777,0.010204724036881739,0.003116496671484681,2.0332959034717812,2.2349328467662914,-0.051320491420983015,-0.016165546361968767,-0.9112991218405256,7.19890067423713,409161310157.825,0.0,1385765000793.9714,0.7011882996328457,-0.10413615352148584,0.6975183713391258,0.10468405624621831,-0.051320491420983015,-0.016165546361968767,-0.9112991218405256
29.3,-103.78136968493983,11.940938867311745,292.2986925033311,310.4056770645021,0,8.34302152353511,221.74742791358565,11.026925326874167,19.74328975011104,0.010181861729208245,0.003066521460004534,0.9676267462884914,2.131221035579167,-0.00011431153836747316,-0.0002498760574007361,-5.328345785916468,8.583456715322983,409161310157.825,0.0,1385765000793.9714,0.7033894165465673,-0.10249032065759407,0.6957020735901974,0.1036228143995451,-0.00011431153836747316,-0.0002498760574007361,-5.328345785916468
29.4,-103.77933920997182,11.941540503013732,292.659951284066,310.745231213667,0,8.3270594822842,221.63451843546756,11.026835012178983,19.755331709468866,0.02030474968009387,0.006016357019866931,3.612587807348936,2.100776660871248,0.10122887950885842,0.029498355598624598,26.44961061060501,8.797685007571015,409161310157.825,0.0,1385765000793.9714,0.7018331052727143,-0.10119546297374638,0.697730951867322,0.10179041911255177,0.10122887950885842,0.029498355598624598,26.44961061060501
29.6,-103.7773135771765,11.942131076812831,293.0253025614475,311.0886903266965,0,8.291445561402941,221.40315333108774,11.026743674359638,19.767510085381584,0.010128163976616944,0.0029528689954982502,1.8267563869076493,1.8598634837948125,-0.05088292851738391,-0.015317440121843186,-8.929157102206307,9.849791400841458,409161310157.825,0.0,1385765000793.9714,0.7020237461871612,-0.0996733919265994,0.6979811421373135,0.10025068554320153,-0.05088292851738391,-0.015317440121843186,-8.929157102206307
29.7,-103.77529325122632,11.942712095631276,293.23163560289436,311.2823990846989,0,8.273820013931235,221.28470798768143,11.026692091099276,19.77438785342981,0.020203259501841306,0.005810188184440914,2.06333041446844,2.3852235164776188,0.10075095525224577,0.028573191889427245,2.365740275607959,14.315627139225256,409161310157.825,0.0,1385765000793.9714,0.7037446568058238,-0.09817837157992702,0.6966111172500339,0.09918375217154493,0.10075095525224577,0.028573191889427245,2.365740275607959
29.9,-103.77327844667028,11.943282526626717,293.39737397806874,311.4378820476207,0,8.235999163953377,221.04231803929207,11.026650656505483,19.779912465935624,0.010074022780202122,0.0028521549772087085,0.8286918758719283,2.0541216182417843,-0.0506461836081961,-0.01479016603616108,-6.173192692982581,10.6630084592289,409161310157.825,0.0,1385765000793.9714,0.7047995319375125,-0.09661988825394976,0.6959510911658164,0.09784832997842616,-0.0506461836081961,-0.01479016603616108,-6.173192692982581
30.0,-103.77126855793298,11.943840807192467,293.7568164588709,311.77587900188973,0,8.219808180708444,220.91838420715567,11.026560795885281,19.791893881962363,0.020098887372909928,0.005582805657500166,3.5944248080215346,2.021809209550112,0.10024864592707664,0.027306506802914188,27.65732932149567,9.461542387409292,409161310157.825,0.0,1385765000793.9714,0.7026584326967903,-0.09522038561359894,0.6985924656406366,0.09577458991728277,0.10024864592707664,0.027306506802914188,27.65732932149567
30.2,-103.76926380931364,11.944388444957836,294.1482390194317,312.14406136443426,0,8.184068900255577,220.6650663675043,11.02646294024514,19.804941300647723,0.010023743096709873,0.0027381888268429673,1.9571128028039266,1.9360016166683678,-0.05037572138100046,-0.014223084153286044,-8.186560026088069,9.049584755579398,409161310157.825,0.0,1385765000793.9714,0.7026887939620865,-0.09375111920296461,0.69896787231164,0.09425019875012923,-0.05037572138100046,-0.014223084153286044,-8.186560026088069
30.3,-103.76726524498515,11.944926837788337,294.31474863610697,312.30033281813525,0,8.165869863734368,220.53569361851822,11.026421312840974,19.810491621203564,0.019985643284882997,0.0053839283050115885,1.6650961667528226,2.043414402508289,0.09961900188172983,0.026457394781685836,-2.9201663605109993,8.08358658345761,409161310157.825,0.0,1385765000793.9714,0.7053383234567344,-0.09218857797690705,0.6966250428268681,0.09334165876125768,0.09961900188172983,0.026457394781685836,-2.9201663605109993
30.4,-103.76527235899302,11.945454563786022,294.4781755874701,312.45371101940265,0,8.147617728507905,220.40451928982168,11.026380456103132,19.815939186249004,0.01992885992137914,0.005277259976850359,1.6342695136313872,1.4443292973093047,-0.0005678336350385792,-0.001066683281612321,-0.30826653121436054,4.086362163432744,409161310157.825,0.0,1385765000793.9714,0.7056005556941477,-0.09068929053415624,0.6967557874040452,0.09184051995437668,-0.0005678336350385792,-0.001066683281612321,-0.30826653121436054
30.6,-103.76328423525447,11.945970271289683,294.7513322543057,312.7105262486328,0,8.110517626063595,220.13678929290208,11.026312166936423,19.825044408476856,0.00994061869270965,0.002578537518305132,1.3657833341778576,1.1652746898879718,-0.04994120614334674,-0.013493612292725941,-1.3424308972676289,2.485644633228552,409161310157.825,0.0,1385765000793.9714,0.7040529638911681,-0.08915427651666487,0.6987789487845598,0.089827165993352,-0.04994120614334674,-0.013493612292725941,-1.3424308972676289
30.7,-103.76130286755746,11.946476518875155,294.81120331960204,312.76632151934257,0,8.091175055477708,220.00024552374597,11.026297199170099,19.827040110653403,0.019813676970131124,0.005062475854718081,0.5987106529636449,0.8434180515031089,0.09873058277421684,0.024839383364130024,-7.6707268121422905,2.408016819947193,409161310157.825,0.0,1385765000793.9714,0.7134575170614653,-0.08669303607386016,0.6895039829826942,0.08970477298218699,0.09873058277421684,0.024839383364130024,-7.6707268121422905
30.91,-103.7593263995597,11.946971815355552,294.92917786854395,312.8768893808913,0,8.050433925457158,219.70772426727808,11.026267705532863,19.83097259561813,0.009411752370305082,0.00235855466855518,0.561783566390007,0.5641375368189991,-0.049532974284885706,-0.01287581517220424,-0.1758432693982748,2.711164311188974,409161310157.825,0.0,1385765000793.9714,0.7078180893154041,-0.08584273102972122,0.6956986592752508,0.08733815575032397,-0.049532974284885706,-0.01287581517220424,-0.1758432693982748
31.11,-103.75735690478767,11.947457009781486,294.9401807885052,312.8866265669151,0,8.010577571516478,219.42189622015724,11.026264954802873,19.83133935961684,0.009847473860133994,0.0024259721296715584,0.055014599806213677,0.3412588096704483,0.002178607449144567,0.0003370873055818928,-2.5338448329189758,2.4724052567553754,7.021739392299425,0.0,0.4903840592739385,0.7629376097702695,-0.07708334267527994,0.6351464360650069,0.09259247611957243,0.002178607449144567,0.0003370873055818928,-2.5338448329189758
31.21,-103.75539176663575,11.94793150144137,294.9638944690409,312.90834668981694,0,7.990821341109457,219.27635088452203,11.02625902638274,19.832129815634694,0.01965138151916762,0.004744916598848835,0.23713680535706436,0.28105308801768575,0.09803907659033488,0.023189444691772438,1.8212220555084808,0.9871297927999743,6.370715102895549,0.0,0.5055709914651672,0.7313648385507124,-0.0799400669783584,0.6716682430192655,0.08704498803836296,0.09803907659033488,0.023189444691772438,1.8212220555084808
31.3,-103.75343418836516,11.94839578986159,294.9864334018795,312.92896184116944,0,7.973049121891111,219.1438674006834,11.02625339164953,19.832881113395985,0.02175086967323779,0.005158760224648841,0.25043258709539906,0.2325720278248141,0.023327646156335258,0.004598262508888964,0.14773090820371917,0.9969130770766726,6.370715102895549,0.0,0.5055709914651672,0.7328754929601714,-0.0784099967762528,0.6703710335311469,0.08572083542707513,0.023327646156335258,0.004598262508888964,0.14773090820371917
31.5,-103.75148028310304,11.948849544806775,295.04600588091466,312.9844888371631,0,7.933645564074849,218.8444214991993,11.026238498529771,19.834866862697154,0.009769526310634581,0.0022687747259286877,0.2978623951759129,0.3983350443181196,-0.059906716813016264,-0.01444992749360082,0.23714904040257,1.0560950550089505,6.370715102895549,0.0,0.5055709914651672,0.7142323326492438,-0.07913457865539741,0.6905877574101147,0.0818440148985933,-0.059906716813016264,-0.01444992749360082,0.23714904040257
31.6,-103.74953461384152,11.949292626280016,295.077889702197,313.01391745090046,0,7.913966283155863,218.6921055835275,11.02623052757445,19.8359296567399,0.01945669261516486,0.004430814732412295,0.3188382128234889,0.3728868098933978,0.09687166304530143,0.021620400064835763,0.20975817647575704,1.686306581516527,6.370715102895549,0.0,0.5055709914651672,0.7242936940974447,-0.07649130731873319,0.6803801608886982,0.08142825838993162,0.09687166304530143,0.021620400064835763,0.20975817647575704
31.8,-103.74759332343673,11.949725174523081,295.2548298639261,313.18009772354276,0,7.87575248962879,218.38232166987942,11.026186292534017,19.841827662130868,0.00970645202393431,0.0021627412153257886,0.8847008086453942,0.35683770050238617,-0.04875120295615293,-0.011340367585432571,2.829312979109537,2.217437166218382,6.370715102895549,0.0,0.5055709914651672,0.7068017699262634,-0.07691968057663338,0.6989016154446293,0.0777891554008499,-0.04875120295615293,-0.011340367585432571,2.829312979109537
32.0,-103.74565796460797,11.950148060016623,295.23276746644075,313.1586731531784,0,7.835579387809247,218.06571433346755,11.02619180813339,19.84109224888136,0.009676794143800328,0.0021144274677098525,-0.11031198742671261,0.3095615458816818,-0.00014828940066991032,-0.0002415687380796813,-4.975063980360552,2.625413261581155,6.370715102895549,0.0,0.5055709914651672,0.7337834266995354,0.07243725425410935,-0.6708478712350666,0.07923295120461199,-0.00014828940066991032,-0.0002415687380796813,-4.975063980360552
32.1,-103.74373133993656,11.950559053480415,295.24977201221134,313.1740818255662,0,7.815789707880017,217.90486942364905,11.026187556996947,19.84165906707371,0.019266246714124417,0.004109934637916921,0.17004545770589388,0.25679106230211524,0.09589452570323952,0.0199550717020704,2.8035744513260252,2.687324367399772,6.370715102895549,0.0,0.5055709914651672,0.7425669804155786,-0.06977241687930419,0.6615071603415373,0.07832219516960617,0.09589452570323952,0.0199550717020704,2.8035744513260252
32.2,-103.74181059186513,11.950959335873513,295.24392750582984,313.1679508235059,0,7.795785208116568,217.74233985920674,11.026189018123542,19.841464250194328,0.019207480714271422,0.00400282393098189,-0.058445063814928366,0.13682627333509062,-0.0005876599985299352,-0.001071107069350295,-2.28490521520819,2.478820750629937,6.370715102895549,0.0,0.5055709914651672,0.8075844346780584,0.059872608057359306,-0.5807677252967985,0.0832556359876805,-0.0005876599985299352,-0.001071107069350295,-2.28490521520819
32.41,-103.7398951426965,11.95134969839451,295.25544075400126,313.1781855408683,0,7.754066994823455,217.39557644805382,11.0261861398115,19.841848025133373,0.0091211865173101,0.0018588691476074642,0.05482499129243642,0.2500020290224992,-0.048029972366483924,-0.010209308492259471,0.5393812147969913,2.267237755946644,6.370715102895549,0.0,0.5055709914651672,0.7601436737348192,-0.06474911101567594,0.6419586756971223,0.07666946328760424,-0.048029972366483924,-0.010209308492259471,0.5393812147969913
32.6,-103.73798783459284,11.951728472481673,295.20133846553375,313.1265625354909,0,7.715751672871702,217.07552064172225,11.026199665383617,19.84004461551779,0.010038463703440819,0.0019935478271679227,-0.2847488866710687,0.2197047954977342,0.00482777466384577,0.0007088351555813426,-1.7872309366499812,3.0507365409206244,6.370715102895549,0.0,0.5055709914651672,0.7162394072001035,0.06794562450078102,-0.6909586757710625,0.07043161265754866,0.00482777466384577,0.0007088351555813426,-1.7872309366499812
32.7,-103.73608581957477,11.95209716981319,295.1337027513293,313.06218332406877,0,7.6952274989805325,216.90467764296184,11.026216574312167,19.837790091710975,0.01902015018075049,0.003686973315168932,-0.6763571420446982,0.243267384404303,0.08981686477309545,0.01693425488000985,-3.91608255373624,2.769149744979094,6.370715102895549,0.0,0.5055709914651672,0.7138747241869818,0.06661713723245756,-0.6937186473608906,0.0685527059837083,0.08981686477309545,0.01693425488000985,-3.91608255373624
32.8,-103.73419223952028,11.952454252307284,295.13329482437376,313.0611849401487,0,7.675401213701284,216.732194442381,11.026216676293906,19.837776494145793,0.01893580054485363,0.003570824940944054,-0.004079269555177466,0.2652485754518238,-0.0008434963589686519,-0.0011614837422488462,6.72277872489559,3.005274015250232,6.370715102895549,0.0,0.5055709914651672,0.9902491249991227,0.009689111503836173,-0.10366675802819215,0.09255265980328471,-0.0008434963589686519,-0.0011614837422488462,6.72277872489559
33.0,-103.73230484616408,11.95280252212247,295.0974534997271,313.0267841876378,0,7.635483146710776,216.38233817188154,11.026225636625067,19.836581783324235,0.00943696678099557,0.0017413490759299074,-0.17920662323319647,0.23803719188619138,-0.047494168819289626,-0.009147379325070601,-0.8756367683900826,2.687768451356182,6.370715102895549,0.0,0.5055709914651672,0.7227472993850014,0.06267791970691643,-0.6850806017767085,0.0661240401228128,-0.047494168819289626,-0.009147379325070601,-0.8756367683900826
33.2,-103.73042510109633,11.953138641657668,295.1305014945133,313.0573294581102,0,7.596380165263412,216.02601402597276,11.026217374626372,19.837683383150445,0.009398725338769376,0.0016805976759925773,0.1652399739307929,0.1601630507084603,-0.0001912072111309699,-0.0003037569996866465,1.7222329858199226,2.0441171699470075,6.370715102895549,0.0,0.5055709914651672,0.7243715242582226,-0.0606478481151497,0.6837245379043659,0.0642533238850892,-0.0001912072111309699,-0.0003037569996866465,1.7222329858199226
33.3,-103.72855198576202,11.953466743552388,295.14526712790916,313.0706415048479,0,7.576863344193286,215.8454462506239,11.026213683218023,19.838175570930304,0.018731153343055595,0.0032810189471989748,0.14765633395882943,0.2209333772273611,0.0933242800428675,0.016004212712064883,-0.17583639971964465,0.7664605629075497,6.370715102895549,0.0,0.5055709914651672,0.7480897739772306,-0.05718682231635037,0.6579234180893506,0.06502409825349104,0.0933242800428675,0.016004212712064883,-0.17583639971964465
33.5,-103.72668581145993,11.953781650686908,295.20268872113536,313.1241697368141,0,7.538222943864554,215.4795394208042,11.026199327819716,19.840089624037844,0.009330871510471052,0.0015745356725993308,0.28710796613097095,0.3412427881802239,-0.047001409162922045,-0.008532416372998099,0.6972581608606977,3.044028363863,6.370715102895549,0.0,0.5055709914651672,0.7161498791503361,-0.05805422035447256,0.6929351772530206,0.059999151804991255,-0.047001409162922045,-0.008532416372998099,0.6972581608606977
33.61,-103.72482647934167,11.954088786182396,295.23822909744433,313.15707207002765,0,7.517079859648817,215.27559793865814,11.026190442725639,19.841274303248145,0.016903019256889536,0.0027921408680727225,0.32309433008157035,0.45966249722230434,0.06883770678562294,0.011069138140667255,0.32714876318726893,4.237913751082414,6.370715102895549,0.0,0.5055709914651672,0.7231568096022107,-0.05626328883573522,0.6858273350201227,0.05932569084751363,0.06883770678562294,0.011069138140667255,0.32714876318726893
33.7,-103.72297410041095,11.954381833401117,295.1679631821102,313.0902251593442,0,7.498826588273335,215.10732521075317,11.026208009204472,19.83893210607034,0.02058198811912131,0.003256080208006409,-0.7807323926012898,0.5403541744084228,0.04087743180257371,0.005154881554818545,-12.264741363142427,5.507784473316593,-175215191540022.6,0.0,-405867600788.30707,0.7142741399813014,0.054671436334927354,-0.6954643435538062,0.056150101053529404,0.04087743180257371,0.005154881554818545,-12.264741363142427
33.9,-103.72112885552242,11.954667845946506,295.31947450241734,313.23246746586585,0,7.4614737364549,214.72886979090566,11.026170131374395,19.84398248341391,0.009226224442642402,0.001430062726948153,0.7575566015356278,0.7256894013290331,-0.05677881838239575,-0.009130087405291474,7.691444970684752,6.691220077087335,-87678298921531.67,0.0,-639665656086.0095,0.7093484964510656,-0.05397879474436517,0.7006601032172501,0.05464814781994772,-0.05677881838239575,-0.009130087405291474,7.691444970684752
34.1,-103.71929060538096,11.954939217663393,295.20902328764936,313.12773630872977,0,7.421697941132948,214.3442404412284,11.026197744178088,19.840300776254978,0.009191250707303181,0.0013568585844314447,-0.5522560738398773,0.7850461200612276,-0.00017486867669610107,-0.00036602071258353677,-6.549063376877432,8.458407161616602,-87678298921531.67,0.0,-639665656086.0095,0.711115354071289,0.05133540397422477,-0.6992525516032063,0.052206307849468725,-0.00017486867669610107,-0.00036602071258353677,-6.549063376877432
34.2,-103.7174606005408,11.955203212638057,295.08764336907757,313.01270866595195,0,7.401227093044527,214.14963186814148,11.02622808915773,19.836254778969252,0.018300048401584685,0.0026399497466477917,-1.2137991857178858,1.1380860612249037,0.09108797694281374,0.012830911622163288,-6.615431118779991,12.33828688767331,-87678298921531.67,0.0,-639665656086.0095,0.7106441056195617,0.05022365133235823,-0.699901492182103,0.05099452163011844,0.09108797694281374,0.012830911622163288,-6.615431118779991
34.4,-103.71563763140446,11.955456875198418,295.2116960799496,313.1290659469096,0,7.364120335968361,213.75587017127594,11.026197075980011,19.840389869331652,0.009114845681708256,0.0012683128018054206,0.6202635543601919,1.063841105705404,-0.04592601359938313,-0.006858184724212002,9.170313700390585,16.131187970271423,-87678298921531.67,0.0,-639665656086.0095,0.7106310285789615,-0.0484798029963712,0.7001658197072227,0.049204418866123215,-0.04592601359938313,-0.006858184724212002,9.170313700390585
34.5,-103.71382148822204,11.955695509914127,294.95708165547705,312.8884392903201,0,7.342487791137911,213.5567345479524,11.02626072958613,19.831902721849236,0.018161431824239314,0.002386347157088375,-2.5461442447254607,1.1980007308221547,0.0904658614253093,0.011180343552829384,-31.66407799085608,16.515211098843203,-87678298921531.67,0.0,-639665656086.0095,0.7081321306712217,0.0459918578131109,-0.7030559925099119,0.04632392386054079,0.0904658614253093,0.011180343552829384,-31.66407799085608
34.61,-103.71201190109015,11.955923481596697,294.9995453328247,312.92787869642257,0,7.321987578074132,213.33596313235807,11.026250113666794,19.833318177760823,0.016450792108070305,0.0020724698415428874,0.3860334304332292,1.00003756637182,-0.015551270146991075,-0.002853430141322628,26.656160683260957,18.08502759210797,-87678298921531.67,0.0,-639665656086.0095,0.7207020282646462,-0.043317777248245364,0.6904110823982008,0.04521829199827447,-0.015551270146991075,-0.002853430141322628,26.656160683260957
34.8,-103.7102133299512,11.956143465299633,294.76715725109733,312.70822616202463,0,7.283701196069506,212.95041498136132,11.026308210687226,19.82557190836991,0.009466163889202987,0.001157808962818552,-1.2230951669862193,0.9701292986259041,-0.036761201151933695,-0.00481400462486498,-8.469097881155093,16.94510069291921,-1417777970046.6985,0.0,170837956526.22162,0.7085441456387861,0.0428349595148023,-0.703041029454564,0.04317025397000541,-0.036761201151933695,-0.00481400462486498,-8.469097881155093
34.9,-103.70841865459242,11.9563492363185,294.78949675132793,312.7286967673389,0,7.265092411759639,212.74536750193124,11.026302625812168,19.8263165583776,0.01794675358780725,0.00205771018867648,0.2233950023060029,0.4866321217031323,0.08480589698604142,0.008999012258579154,14.464901692922018,10.95454970970587,-2835555940254.9424,0.0,341675913052.7448,0.7338538287888104,-0.03867919786268054,0.6769077397270147,0.04193315540675487,0.08480589698604142,0.008999012258579154,14.464901692922018
35.1,-103.70663416464501,11.956548000191075,294.69535577646496,312.63937328183357,0,7.226693358820713,212.33091568811068,11.026326161055884,19.823178525882167,0.008922449737056455,0.0009938193628755557,-0.4707048743148267,0.43144662887181634,-0.04512151925375334,-0.005319454129004547,-3.470499383104099,6.098510642003665,-2835555940254.9424,0.0,341675913052.7448,0.712719306429567,0.03882293864975684,-0.6992554243431763,0.03957045872615596,-0.04512151925375334,-0.005319454129004547,-3.470499383104099
35.3,-103.70485768958325,11.95673496269741,294.6696729713604,312.6145824948564,0,7.189266982055608,211.91071624109645,11.02633258175716,19.822322432378677,0.00888237530880095,0.0009348125316766187,-0.12841402552283218,0.21785523799452214,-0.00020037214127752943,-0.00029503415599469156,1.7114542439600093,4.931029600433673,-2835555940254.9424,0.0,341675913052.7448,0.7302216831476518,0.03574710188579298,-0.6811975014235828,0.038319736716800966,-0.00020037214127752943,-0.00029503415599469156,1.7114542439600093
35.4,-103.70308532872365,11.956907349859948,294.6805746827561,312.6242771050084,0,7.170903910944101,211.69848445965792,11.02632985632931,19.822685822758537,0.017723608596042797,0.0017238716253764363,0.10901711395717784,0.1880956945873769,0.08841233287241722,0.007890590936998064,2.3743113948000665,2.1178484487576545,-2835555940254.9424,0.0,341675913052.7448,0.7610782284039935,-0.031383477624877996,0.6468473555524026,0.0369256847799906,0.08841233287241722,0.007890590936998064,2.3743113948000665
35.5,-103.70132063122406,11.957068857943591,294.66515865927164,312.6091667306435,0,7.152355252020797,211.48484386190574,11.026333710335182,19.822171955309056,0.017646974995812775,0.0016150808364301153,-0.15416023484476463,0.10105621448800983,-0.0007663360023002041,-0.0010879078894631938,-2.631773488019387,1.4640014935680372,-2835555940254.9424,0.0,341675913052.7448,0.7456136472696844,0.030359063409541278,-0.6648152363367226,0.03404875634501058,-0.0007663360023002041,-0.0010879078894631938,-2.631773488019387
35.7,-103.69956705608286,11.95722160345579,294.6501965513905,312.59448760953256,0,7.115656751971413,211.05337426006213,11.026337450862153,19.821673218379683,0.008767875706041525,0.0007637275609972852,-0.07481053940580189,0.17150531078661024,-0.04439549644885562,-0.00425676637716409,0.39674847719480805,1.9331035057488954,-2835555940254.9424,0.0,341675913052.7448,0.7465696942611025,0.02885942058328714,-0.6638882351394774,0.03245360839523042,-0.04439549644885562,-0.00425676637716409,0.39674847719480805
35.9,-103.697820692138,11.957362583146638,294.6432969114474,312.5874100969055,0,7.079371203609039,210.61638414013626,11.026339175772138,19.82144323038158,0.008731819724303777,0.0007048984542379495,-0.034498199715358904,0.20472976110900873,-0.00018027990868874636,-0.0002941455337966847,0.20156169845221922,1.9130832182045239,-2835555940254.9424,0.0,341675913052.7448,0.788701859979476,0.024721183541537538,-0.61345583521381,0.03178328792537947,-0.00018027990868874636,-0.0002941455337966847,0.20156169845221922
