time,position_x,position_y,position_z,ground_station_distance,comm_range_status,wind_speed,wind_angle,battery_voltage,battery_current,velocity_x,velocity_y,velocity_z,velocity_total,acceleration_x,acceleration_y,acceleration_z,acceleration_total,angular_x,angular_y,angular_z,orientation_w,orientation_x,orientation_y,orientation_z,linear_acceleration_x,linear_acceleration_y,linear_acceleration_z
0.0,-68.15804004701788,18.104493849406726,269.3324017,278.41198560062793,0,7.693324017,180.0,11.032666899575,18.977746723333333,2.6714919343362453e-05,0.008321061612495129,0.012359152323995204,0.028315142328645005,0.0013847338060202225,0.08398259997743912,0.2606566705736669,0.23078203310990672,2623420190006544.0,0.0,-22419524492305.2,0.6251985284069035,-0.33169762649520634,0.33276425721584413,0.6231945392691406,0.0013847338060202225,0.08398259997743912,0.2606566705736669
0.2,-68.15803470403401,18.106158061729225,269.3348735304648,278.41448373628856,0,7.733346068691314,180.59998222238025,11.032666281617383,18.97782911768216,2.6714919343362453e-05,0.008321061612495129,0.012359152323995204,0.028315142328645005,0.0013847338060202225,0.08398259997743912,0.2606566705736669,0.23078203310990672,2623420190006544.0,0.0,-22419524492305.2,0.6251985284069035,-0.33169762649520634,0.33276425721584413,0.6231945392691406,0.0013847338060202225,0.08398259997743912,0.2606566705736669
0.3,-68.15801818520401,18.10782999389025,269.3387160124029,278.4183056001025,0,7.753378160529021,180.89994000119998,11.032665320996898,18.97795720041343,0.00016518829994538467,0.01671932161023904,0.03842481938136189,0.028315142328645005,0.0013847338060202225,0.08398259997743912,0.2606566705736669,0.23078203310990672,2623420190006544.0,0.0,-22419524492305.2,0.5943110522368498,-0.3857011256737489,0.3895307100007063,0.5884682156323118,0.0013847338060202225,0.08398259997743912,0.2606566705736669
0.5,-68.15799076089262,18.109509649020694,269.3430996973098,278.42264886112423,0,7.793389335514455,181.4997222376539,11.032664225075672,18.97810332324366,0.00013712155698897277,0.008398275652226062,0.0219184245344195,0.028315142328645005,-0.0001403337147820595,-0.04160522979006488,-0.08253197423471195,0.23078203310990672,2623420190006544.0,0.0,-22419524492305.2,0.5873678227826329,-0.3973913878521117,0.4039326999717748,0.5778559504877268,-0.0001403337147820595,-0.04160522979006488,-0.08253197423471195
0.6,-68.15795218170763,18.111196980081125,269.3474454367244,278.42695319409086,0,7.813402467326133,181.79952003839853,11.03266313864082,18.978248181224146,0.0003857918498795244,0.016873310604310635,0.043457394145889346,0.035422900955715,0.002486702928905517,0.08475034952084576,0.2153896961146985,0.23078203310990672,2623420190006544.0,0.0,-22419524492305.2,0.5901615507059002,-0.3947746022637262,0.4039039133626667,0.5768223177428621,0.002486702928905517,0.08475034952084576,0.2153896961146985
0.81,-68.15790269850004,18.112891999862633,269.35001968225174,278.42954164327875,0,7.855323107926513,182.42881919217493,11.032662495079437,18.97833398940839,0.00023563432185775508,0.008071522769084603,0.012258312034960212,0.028808465004684224,-0.0007150358477227109,-0.04191327540583824,-0.14856705767109105,0.2260335032839697,2623420190006544.0,0.0,-22419524492305.2,0.6315335906612954,-0.3304415178826032,0.3402289727580009,0.6133661004831682,-0.0007150358477227109,-0.04191327540583824,-0.14856705767109105
0.9,-68.15784207236392,18.114594590987622,269.35422728558433,278.4337079625442,0,7.873299371251866,182.698380291575,11.032661443178604,18.978474242852812,0.0006736237346495325,0.01891767916654254,0.04675114813987119,0.028265103619829944,0.004866549031019751,0.12051284886064378,0.383253734499011,0.24012091183165243,2623420190006544.0,0.0,-22419524492305.2,0.5967088883802408,-0.3880930677930579,0.40215830921832185,0.5758393591841832,0.004866549031019751,0.12051284886064378,0.383253734499011
1.1,-68.1577705346364,18.116304785910668,269.3537903985242,278.43337907909006,0,7.913094505659592,183.29704301743396,11.032661552400368,18.97845967995081,0.0003576886376066567,0.00855097461522902,-0.0021844353005917574,0.02378896977861886,-0.0015796754852143787,-0.051833522756567586,-0.24467791720231466,0.20778328625860074,2717249615142537.0,0.0,-11392332354842.059,0.7161050414612925,0.08626269533779,-0.08994651432028147,0.6867764858732509,-0.0015796754852143787,-0.051833522756567586,-0.24467791720231466
1.2,-68.15768796689767,18.118022516919332,269.35495257300516,278.4345949132802,0,7.93297394030789,183.59616122861277,11.032661261856749,18.97849841910017,0.00082567738729722,0.017177310086644606,0.01162174480953128,0.024788106310854596,0.00467988749690564,0.08626335471415597,0.13806180110123056,0.20886101666594908,2717249615142537.0,0.0,-11392332354842.059,0.6921589313073728,-0.20200548328596937,0.21194869918756734,0.6596874619443176,0.00467988749690564,0.08626335471415597,0.13806180110123056
1.4,-68.15759428097094,18.119747716134974,269.359482061114,278.43906603006957,0,7.972681049899613,184.19390487759242,11.032660129484722,18.978649402037135,0.0004684296336421313,0.008625996078208688,0.022647440544290024,0.017262509353833583,-0.001786238768275444,-0.0427565700421796,0.05512847867379373,0.13714412504924559,2717249615142537.0,0.0,-11392332354842.059,0.5979016266554756,-0.39009784982501894,0.4118566534756217,0.5663138788626806,-0.001786238768275444,-0.0427565700421796,0.05512847867379373
1.5,-68.15748971892239,18.121480405513616,269.3604082151129,278.4400491500544,0,7.992480347098327,184.49250374910727,11.032659897946221,18.978680273837096,0.001045620485484732,0.017326893786417927,0.009261539988756331,0.02380033454684674,0.005771908518426002,0.0870089770820923,-0.1338590055553368,0.1463192482645493,2717249615142537.0,0.0,-11392332354842.059,0.7063386567275298,-0.16630852869052415,0.17664724545134008,0.6649984405783188,0.005771908518426002,0.0870089770820923,-0.1338590055553368
1.7,-68.15737412306113,18.123220506846764,269.3622850874611,278.4419497784581,0,8.031987549008603,185.08908923171782,11.032659428728135,18.978742836248703,0.0005779793062998807,0.00870050666573974,0.00938436174095614,0.0221849695345405,-0.002338205895924257,-0.043131935603390945,0.0006141087609990403,0.143567586498372,2717249615142537.0,0.0,-11392332354842.059,0.6693449415760355,-0.2730143464721682,0.29175258055094877,0.6263552885933117,-0.002338205895924257,-0.043131935603390945,0.0006141087609990403
1.8,-68.15724739593911,18.124967971762253,269.3660495308367,278.4456741923239,0,8.051719642160014,185.38704932800138,11.03265848761729,18.978868317694555,0.0012672712202288483,0.017474649154891594,0.03764443375587231,0.025718250783492325,0.00689291913928967,0.08774142489151847,0.28260072014916143,0.19001102635908496,2717249615142537.0,0.0,-11392332354842.059,0.6174159010941831,-0.3661391263846971,0.39365328077036094,0.5742619957345604,0.00689291913928967,0.08774142489151847,0.28260072014916143
2.0,-68.15710975035115,18.126722801725098,269.3678748981585,278.4475205782985,0,8.091017410571707,185.98223801800413,11.03265803127546,18.97892916327195,0.000688227939775743,0.008774149814225753,0.009126836609141266,0.024293949671771994,-0.0028952164022655272,-0.043502496703329216,-0.14258798573365525,0.1884822529482084,2717249615142537.0,0.0,-11392332354842.059,0.6757631370464603,-0.26548921784705526,0.28712916098196206,0.624833179920753,-0.0028952164022655272,-0.043502496703329216,-0.14258798573365525
2.1,-68.15696100933482,18.128484928038354,269.3716740426079,278.45127415102826,0,8.110636540118279,186.27944015899064,11.032657081489347,18.979055801420262,0.0014874101633211,0.017621263132561165,0.03799144449374122,0.030169152276925227,0.007991822235453562,0.08847113318335405,0.2886460788459993,0.24122888175167198,2717249615142537.0,0.0,-11392332354842.059,0.6208060483231622,-0.3637953329166245,0.39579701149001517,0.5706115419521715,0.007991822235453562,0.08847113318335405,0.2886460788459993
2.3,-68.15680136617034,18.130254321843942,269.37344801765045,278.4530664064595,0,8.149689527246881,186.87299398884537,11.032656637995586,18.979114933921682,0.000798215822399585,0.008846969027942476,0.008869875212838009,0.024140045761259298,-0.0034459717046075792,-0.0438714705230935,-0.14560784640451624,0.21259007046095868,2717249615142537.0,0.0,-11392332354842.059,0.6821056433759877,-0.2579252355272679,0.28224417651390843,0.6233335294822661,-0.0034459717046075792,-0.0438714705230935,-0.14560784640451624
2.4,-68.1566306343806,18.13203093412352,269.3772704770579,278.45683811840104,0,8.169177957624848,187.16931929764107,11.032655682380735,18.979242349235264,0.0017073178973703292,0.017766122795777033,0.038224594074449635,0.02600567161058693,0.009091020749707433,0.08919153767834549,0.293547188616116,0.2085290944932873,2717249615142537.0,0.0,-11392332354842.059,0.6243410013181834,-0.36115626745815355,0.39752708424002176,0.5672183722732624,0.009091020749707433,0.08919153767834549,0.293547188616116
2.61,-68.15644896773098,18.133814735699353,269.37884927492956,278.45843713101027,0,8.209882119087215,187.79054958741378,11.032655287681267,18.97929497583099,0.0008650792839235,0.008494293218251956,0.007518085103204917,0.022832778067266725,-0.004010660064032521,-0.044151569416786086,-0.14622147129164154,0.16692614235642322,2717249615142537.0,0.0,-11392332354842.059,0.6942405166802231,-0.23675053159089174,0.26208638248971244,0.627128391084683,-0.004010660064032521,-0.044151569416786086,-0.14622147129164154
2.7,-68.15625631022938,18.13560569723516,269.37967286571427,278.4593033487488,0,8.227259602034804,188.0563308041621,11.03265508178357,18.97932242885714,0.002140638906666929,0.019899572620079447,0.009151008718946358,0.025786192582858396,0.014172884697149161,0.1267253266869717,0.018143595730460396,0.15646064659393075,-2.4762000264033803,0.0,0.22310236257540622,0.7269237226529653,-0.14218613575494818,0.1583017031038707,0.6529208030365125,0.014172884697149161,0.1267253266869717,0.018143595730460396
2.9,-68.156052616126,18.137403759236996,269.38455660423193,278.4640951006006,0,8.26575001625199,188.64590342175129,11.032653860848942,18.979485220141065,0.0010184705168825316,0.008990310009178172,0.024418692588312783,0.020311351267586257,-0.005610841948921994,-0.05454631305450645,0.07633841934683222,0.10714150995340448,3.5972062805141904,0.0,-0.2296587427505301,0.6121927997176739,-0.38049321179904816,0.4260312828910345,0.5467561044441113,-0.005610841948921994,-0.05454631305450645,0.07633841934683222
3.0,-68.15583798991337,18.139208902054115,269.3865960456952,278.4661330948276,0,8.28490637377963,188.94011988577776,11.032653350988577,18.979553201523174,0.0021462621263879083,0.018051428171190747,0.020394414632960416,0.02789264603614655,0.011277916095053757,0.09061118162012567,-0.04024277955352363,0.15412723390961167,22.379383397898113,0.0,-0.2200520502412701,0.6822783161271945,-0.27161753115664555,0.30582518817635285,0.6059630107423284,0.011277916095053757,0.09061118162012567,-0.04024277955352363
3.21,-68.15561237632619,18.141021085879846,269.38911404573116,278.46863182551516,0,8.324922417642766,189.55666554280648,11.032652721488567,18.979637134857704,0.0010743504151242808,0.008629446789194212,0.011990476361591262,0.028305451340512065,-0.00510434148220775,-0.044866578009507316,-0.040018753673186455,0.15360561418398014,10.140555271961881,0.0,0.22373393602167085,0.6676781175318529,-0.3007861924897465,0.34055562486506624,0.5897079481823241,-0.00510434148220775,-0.044866578009507316,-0.040018753673186455
3.3,-68.15537573034119,18.142840240752463,269.39315236040255,278.4725990678805,0,8.342017580393762,189.82033303863912,11.0326517119099,18.979771745346753,0.002629399833311814,0.020212831917968813,0.04487016301545238,0.03259094303617646,0.017278326868750395,0.12870427920860686,0.36532985170956855,0.18160512965293196,5375056597641.742,0.0,-4811566989017.4,0.6316538874228521,-0.3573373233611818,0.4068325869378589,0.5548068583228893,0.017278326868750395,0.12870427920860686,0.36532985170956855
3.5,-68.15512816717711,18.14466633655608,269.39759994622955,278.4769600321327,0,8.379771614373198,190.40498125354344,11.032650600013442,18.97991999820765,0.0012378158204029422,0.009130479018093487,0.02223792913497389,0.03212926565428773,-0.006957920064544352,-0.05541176449937658,-0.11316116940239235,0.1841152126363957,5375056597641.742,0.0,-4811566989017.4,0.6262077857531494,-0.3654796115424017,0.4183708602745479,0.5470413932072121,-0.006957920064544352,-0.05541176449937658,-0.11316116940239235
3.6,-68.15486958229452,18.14649935302154,269.4019709602113,278.481244689468,0,8.398568176152292,190.69661818922106,11.032649507259947,18.980065698673712,0.0025858488258734247,0.01833016465457858,0.04371013981767642,0.03894679635981631,0.013480330054704814,0.09199685636485083,0.21472210682702514,0.21982983160456201,5375056597641.742,0.0,-4811566989017.4,0.6293132076417878,-0.3622187385168158,0.4169036734011173,0.5467666771663625,0.013480330054704814,0.09199685636485083,0.21472210682702514
3.8,-68.15460010139572,18.14833923972727,269.4066148598472,278.48579113194165,0,8.435907087424438,191.2784529096354,11.032648346285038,18.98022049532824,0.0013474044940409175,0.009199433528657165,0.023219498179400975,0.034257629441978035,-0.006192221659162544,-0.04565365562960713,-0.10245320819137738,0.164288924927909,5375056597641.742,0.0,-4811566989017.4,0.6266016493970296,-0.36647748724125495,0.42406402287593725,0.5415111529973637,-0.006192221659162544,-0.04565365562960713,-0.10245320819137738
3.9,-68.15431962042459,18.15018595610022,269.4111340031583,278.4902146540013,0,8.454488170277905,191.56862483514698,11.03264721649921,18.98037113343861,0.002804809711278719,0.018467163729489738,0.04519143311085823,0.038202452160094345,0.014574052172378005,0.09267730200832565,0.21971934931457235,0.18041021262278473,5375056597641.742,0.0,-4811566989017.4,0.630377527453774,-0.36235818789067903,0.42154905767823986,0.5418644743110935,0.014574052172378005,0.09267730200832565,0.21971934931457235
4.11,-68.15402825556652,18.152039461416706,269.4162250487086,278.4951892287653,0,8.493214749186563,192.17629692654444,11.032645943737823,18.980540834956955,0.0013874517051027325,0.0088262157927909,0.024243074049189996,0.03561625541887394,-0.006749323838933257,-0.04590927588904199,-0.09975409076984854,0.14623160185644707,5375056597641.742,0.0,-4811566989017.4,0.6234571782082208,-0.3716869328090991,0.4346791942076686,0.5331078399747832,-0.006749323838933257,-0.04590927588904199,-0.09975409076984854
4.2,-68.1537259332482,18.15389971480336,269.41968685562665,278.49858545210486,0,8.509717774675407,192.43600418538512,11.032645078286093,18.98065622852089,0.003359136870213009,0.020669482073919408,0.03846452131155179,0.039094554723969985,0.021907612945669768,0.13159184756809472,0.1580160806929091,0.14503848974701947,5375056597641.742,0.0,-4811566989017.4,0.6548399177161219,-0.33096085090318045,0.38908966384813387,0.5570088247250051,0.021907612945669768,0.13159184756809472,0.1580160806929091
4.4,-68.15341265013754,18.15576669523799,269.4263298836264,278.505056964344,0,8.546142228968263,193.01151495687571,11.032643417529092,18.980877662787545,0.0015664155532846267,0.009334902173154793,0.03321513999878786,0.035710501456454664,-0.008963606584641903,-0.056672899503823024,-0.026246906563819627,0.10925928784657504,5375056597641.742,0.0,-4811566989017.4,0.6092832305132436,-0.3891670134298527,0.4599109833732435,0.5155626713078543,-0.008963606584641903,-0.056672899503823024,-0.026246906563819627
4.5,-68.15308845314345,18.1576402915505,269.4301199930287,278.5087663362092,0,8.564232268152749,193.2984092997603,11.032642470001742,18.981003999767623,0.0032419699408592468,0.018735963125102794,0.03790109402302746,0.04074676019395945,0.01675554387574626,0.09401060951948034,0.04685954024239612,0.1259088405167325,5375056597641.742,0.0,-4811566989017.4,0.6510326540014968,-0.3382074633954103,0.40175484615493573,0.5480558718948586,0.01675554387574626,0.09401060951948034,0.04685954024239612
4.7,-68.1527533394158,18.159520532423812,269.43622404478214,278.51471200139645,0,8.600134811205958,193.87041214631236,11.032640943988804,18.981207468159404,0.0016755686382907682,0.009401204366561436,0.030520258767126024,0.03904530311634867,-0.007832006512842386,-0.04667379379270675,-0.036904176279507137,0.10094447966386252,5375056597641.742,0.0,-4811566989017.4,0.6177519431199998,-0.38023707591615497,0.45399842760389636,0.5173854758334315,-0.007832006512842386,-0.04667379379270675,-0.036904176279507137
4.8,-68.15240729634513,18.16140736639475,269.4409515004844,278.5193237161498,0,8.61796786608781,194.1554952277253,11.032639762124878,18.981365050016148,0.0034604307066388295,0.018868339709392567,0.04727455702266087,0.04235733313606575,0.017848620683480677,0.09467135342831165,0.16754298255534902,0.12134073585263941,5375056597641.742,0.0,-4811566989017.4,0.6372244389477691,-0.35757320923202945,0.42911547880537076,0.5309861771240806,0.017848620683480677,0.09467135342831165,0.16754298255534902
5.0,-68.15205037156258,18.163300731854978,269.44774102240336,278.5259280666702,0,8.65332848743244,194.72376135582684,11.032638064744399,18.981591367413447,0.001784623912755022,0.009466827301132233,0.033947609594804334,0.04182529555735036,-0.00837903396941903,-0.04700756204130163,-0.06663473713928261,0.11308444297188654,5375056597641.742,0.0,-4811566989017.4,0.6141705253556925,-0.3848130596577239,0.4641334006645724,0.5092088582190154,-0.00837903396941903,-0.04700756204130163,-0.06663473713928261
5.1,-68.15168252293972,18.165200607051897,269.45247017349755,278.5305369728813,0,8.67087919550079,195.00691914633666,11.032636882456625,18.981749005783254,0.0036784862285799266,0.018998751969192606,0.04729151094181833,0.04568444589412018,0.018938623158249113,0.09531924668060407,0.1334390134701404,0.127531572690735,5375056597641.742,0.0,-4811566989017.4,0.6404674155278197,-0.3546775351778886,0.4299360751999018,0.5283562310874711,0.018938623158249113,0.09531924668060407,0.1334390134701404
5.3,-68.15130382858831,18.167106920089584,269.4601775174376,278.53802479214846,0,8.70566845758407,195.57122125711322,11.03263495562064,18.982005917247918,0.0018934717570573394,0.009531565188432003,0.03853671970034608,0.04401403799998493,-0.008925072357612928,-0.047335933903802974,-0.04377395620736121,0.10003225109225182,5375056597641.742,0.0,-4811566989017.4,0.6097138511735095,-0.38996205451608273,0.4750491645151267,0.5005066503236927,-0.008925072357612928,-0.047335933903802974,-0.04377395620736121
5.4,-68.15091422686017,18.169019678929708,269.46491891862695,278.5426411052218,0,8.722921172492494,195.85234049737906,11.032633770270342,18.982163963954232,0.003896017281448373,0.019127588401239747,0.047414011893351676,0.05465621423012359,0.02002545524391023,0.09596023212807693,0.08877292193005552,0.18556537645684582,5375056597641.742,0.0,-4811566989017.4,0.6434805261068598,-0.35202863229978004,0.430960102641857,0.5256253841789846,0.02002545524391023,0.09596023212807693,0.08877292193005552
5.61,-68.15051377634698,18.17093878139245,269.4736617422226,278.5511262173229,0,8.758802992017447,196.44038273173368,11.032631584564443,18.98245539140742,0.001906907205634092,0.00913858315591992,0.04163249331256902,0.051549039301056455,-0.009471952741972768,-0.04756669164438014,-0.027531040860869802,0.2055174790181658,482153474806.45966,0.0,2181135793493.2007,0.6057557312506476,-0.3942166240598762,0.4849669513215104,0.49240258274885906,-0.009471952741972768,-0.04756669164438014,-0.027531040860869802
5.7,-68.15010244588014,18.172864245157452,269.4813794541554,278.5586174053342,0,8.774077892009492,196.69142112358423,11.03262965513646,18.982712648471846,0.004570338520516601,0.02139404183334967,0.08575235480887197,0.062456002670001766,0.029593681276472373,0.136171763082553,0.4902206832922558,0.3102075735423924,482153474806.45966,0.0,2181135793493.2007,0.6139531489002332,-0.38585355611771693,0.4769884321130048,0.49664937311666585,0.029593681276472373,0.136171763082553,0.4902206832922558
5.9,-68.1496802845305,18.17479598776473,269.48821142115156,278.5652494965082,0,8.807604160037084,197.24711973558604,11.032627947144713,18.982940380705053,0.002110806748163439,0.009658713036380098,0.034159834980869136,0.0653019395618044,-0.0122976588617658,-0.05867664398484781,-0.25796259914001396,0.31290700520054204,482153474806.45966,0.0,2181135793493.2007,0.6226696949807665,-0.3767764204098439,0.4680091753682272,0.5012877334893162,-0.0122976588617658,-0.05867664398484781,-0.25796259914001396
6.0,-68.14924725160817,18.176733966615615,269.4974277107527,278.57418599246824,0,8.824259223897597,197.52382540388928,11.032625643072311,18.983247590358424,0.004330329223307687,0.019379788508864307,0.09216289601113237,0.06705941070620366,0.022195224751442564,0.09721075472484243,0.5800306103026344,0.3418511459621698,482153474806.45966,0.0,2181135793493.2007,0.6071714984504885,-0.39282125142770297,0.4902823878785652,0.4864744762392514,0.022195224751442564,0.09721075472484243,0.5800306103026344
6.2,-68.14880337666237,18.17867815897371,269.5103759913361,278.58673067515235,0,8.85717408098797,198.07488797572614,11.032622406002165,18.983679199711204,0.002219374729008903,0.009720961790478091,0.06474140291714997,0.06400295128036963,-0.010554772471493914,-0.048294133591931035,-0.13710746546991187,0.2669554667456321,482153474806.45966,0.0,2181135793493.2007,0.5934394239912444,-0.4059189746152189,0.5090383864137619,0.4732223127215611,-0.010554772471493914,-0.048294133591931035,-0.13710746546991187
6.3,-68.14834869948122,18.180628511965807,269.51511563213575,278.5913319501518,0,8.873440672205897,198.34922038768065,11.032621221091965,18.98383718773786,0.0045467718115333065,0.01950352992096789,0.04739640799641637,0.06716015672282002,0.02327397082524412,0.09782568130489834,-0.17344994920733664,0.26852502260504674,482153474806.45966,0.0,2181135793493.2007,0.6528051624801344,-0.343552880850407,0.4328559655289714,0.5181240691230752,0.02327397082524412,0.09782568130489834,-0.17344994920733664
6.5,-68.14788320009141,18.182584962582855,269.5296202032623,278.6053778150911,0,8.905669013504703,198.89542650167127,11.032617594949183,18.984320673442078,0.002327496949021677,0.009782253085237605,0.07252285563282605,0.06405928148682213,-0.011096374312558138,-0.04860638417865139,0.1256322381820483,0.18332029337692948,482153474806.45966,0.0,2181135793493.2007,0.591733647859433,-0.4071190035622826,0.5153501202399215,0.4674608652049078,-0.011096374312558138,-0.04860638417865139,0.1256322381820483
6.6,-68.1474069087581,18.184547497680875,269.5343411757234,278.60995658646965,0,8.921577115704102,199.16727592796997,11.03261641470607,18.98447803919078,0.004762913333138403,0.0196253509801992,0.0472097246108662,0.06123756448274189,0.024354163841167346,0.09843097894961629,-0.25313131021959945,0.21931970970905895,482153474806.45966,0.0,2181135793493.2007,0.6561064163160554,-0.34044573985992643,0.4329517353520339,0.5159204042638678,0.024354163841167346,0.09843097894961629,-0.25313131021959945
6.8,-68.1469197859847,18.18651607398196,269.5499648214441,278.62508067018734,0,8.953085696251378,199.70840710895135,11.032612508794639,18.98499882738147,0.002435613867035611,0.009842881505424108,0.0781182286036141,0.06833439253081966,-0.011636497330513949,-0.04891234737387541,0.15454251996373938,0.21965825820726184,482153474806.45966,0.0,2181135793493.2007,0.5915750054545427,-0.4068151973640175,0.5197511678136782,0.46303253845863906,-0.011636497330513949,-0.04891234737387541,0.15454251996373938
6.9,-68.1464219225125,18.188490638075187,269.5546838132865,278.6296530849028,0,8.9686212025768,199.9776648134484,11.032611329046677,18.98515612710955,0.004978634721908266,0.01974564093227816,0.04718991842366879,0.08751487632151674,0.025430208548726414,0.09902759426853998,-0.30928310179945145,0.3569907047494235,482153474806.45966,0.0,2181135793493.2007,0.65908336556021,-0.3377025791394657,0.43341949776670624,0.5135305484973953,0.025430208548726414,0.09902759426853998,-0.30928310179945145
7.1,-68.1459132893206,18.190471136417603,269.57195072507045,278.64636253846965,0,8.999387049293778,200.51350461616315,11.032607012318731,18.985731690835685,0.0025431659594943403,0.009902491712079388,0.08633455891981642,0.08449432477492186,-0.01217734381206967,-0.04921574610099403,0.19572320248073885,0.4359653963134556,482153474806.45966,0.0,2181135793493.2007,0.5906777232805651,-0.4070948029349164,0.5248562211980768,0.4581480063398128,-0.01217734381206967,-0.04921574610099403,0.19572320248073885
7.2,-68.14539384762557,18.19245754533516,269.5887375315929,278.6626053457208,0,9.014656719258877,200.78006289936673,11.032602815617102,18.986291251053096,0.005194416950331487,0.01986408917556293,0.16786806522475128,0.10563924347838638,0.02651250990837133,0.09961597463483489,0.8153350630493442,0.7013580088276977,482153474806.45966,0.0,2181135793493.2007,0.5926869516991305,-0.4050672252738101,0.524611922912154,0.45762981833899435,0.02651250990837133,0.09961597463483489,0.8153350630493442
7.4,-68.14486372888119,18.194449811023702,269.5956872086481,278.6693291664098,0,9.04453269534277,201.31039699503822,11.032601078197837,18.98652290695494,0.0026505937218956866,0.00996132844271357,0.034748385275804566,0.11595189197835473,-0.012719116142178993,-0.04951380366424675,-0.665598399744733,0.7138941148822112,482153474806.45966,0.0,2181135793493.2007,0.6353476510001478,-0.3645521417119132,0.47424023221429196,0.4883966630631152,-0.012719116142178993,-0.04951380366424675,-0.665598399744733
7.5,-68.14432281477832,18.196447879549908,269.6140205330471,278.6870637746076,0,9.05941772537714,201.57414923718915,11.032596494866738,18.987134017768238,0.005409141028707173,0.0199806852620555,0.18333324399009207,0.1100640004893186,0.02758547306811496,0.10019356819341965,1.4858485871428804,0.7881394222839779,40482266360395.47,0.0,14348759975.5836,0.5922048078185878,-0.40491052330195476,0.5291026042852711,0.45320124432136166,0.02758547306811496,0.10019356819341965,1.4858485871428804
7.71,-68.14377118724445,18.198451726852284,269.63554188263794,278.70788048280565,0,9.09006102104583,202.1248939586155,11.03259111452934,18.987851396087933,0.0026267977803161647,0.009542130011314364,0.1024826170992453,0.09925070880092965,-0.01324925356376671,-0.04970740595591018,-0.3850029851945085,0.6870231868742025,2088195282561.4922,0.0,-1938984182266.4316,0.5888654932068031,-0.4074234947587842,0.5347364268499516,0.4486652211043261,-0.01324925356376671,-0.04970740595591018,-0.3850029851945085
7.8,-68.14320887844362,18.20046129874212,269.6402773363248,278.71245553392185,0,9.10296161176407,202.35960620296817,11.03258993066592,18.98800924454416,0.006247875564863796,0.022328576553734273,0.052616152076249596,0.10136777483559338,0.04023419760608486,0.14207162824911032,-0.554071833588842,0.6850480488445122,-5.415529308733369,0.0,-0.2482060972112407,0.6673411909058978,-0.33013125074891203,0.43518753612655536,0.5062419387993798,0.04023419760608486,0.14207162824911032,-0.554071833588842
8.0,-68.14263584077605,18.202476530904462,269.6631922740874,278.7346161470408,0,9.13134410453992,202.87829479190856,11.032584201931478,18.988773075802914,0.0028651883378216754,0.01007616081171391,0.11457468881303602,0.08995333772057604,-0.01691343613521059,-0.06126207871010176,0.30979268368393187,0.4761755671389894,-5.415529308733369,0.0,-0.2482060972112407,0.5893777215534283,-0.4063072090588576,0.5379490276464305,0.4451507574491493,-0.01691343613521059,-0.06126207871010176,0.30979268368393187
8.11,-68.14205215687785,18.204497418899106,269.667894577001,278.7391547020581,0,9.146631566859252,203.16184574156526,11.03258302635575,18.988929819233366,0.0053062172563562385,0.018371709042209743,0.04274820830532526,0.0787397647965233,0.02219117198667796,0.07541407482268978,-0.6529680046155557,0.552286344406744,-5.415529308733369,0.0,-0.2482060972112407,0.6706580741665142,-0.32691179322568165,0.4346946632461838,0.5043678982156957,0.02219117198667796,0.07541407482268978,-0.6529680046155557
8.3,-68.14145774962088,18.206523898161553,269.6920132272551,278.7624755509027,0,9.172782874492476,203.64867307169013,11.032576996693185,18.989733774241838,0.003128459247205351,0.01066568032867028,0.12694026449516405,0.09399795518616436,-0.011461884258688805,-0.040558045860733735,0.4431160852096748,0.5333215805581096,-5.415529308733369,0.0,-0.2482060972112407,0.590178052303251,-0.40492649077305326,0.5407595016652124,0.4419316293371099,-0.011461884258688805,-0.040558045860733735,0.4431160852096748
8.41,-68.14085273211228,18.20855592400402,269.69671540817285,278.76700956507386,0,9.187587574809584,203.92879124602558,11.032575821147956,18.98989051360576,0.005500159169132145,0.018472962204250397,0.04274709925249993,0.11794949365600912,0.021560908381152787,0.07097528977800142,-0.7653924112969506,0.6721312084721018,-5.415529308733369,0.0,-0.2482060972112407,0.6733680786136106,-0.32438110367780976,0.43503555584145776,0.5020920188916512,0.021560908381152787,0.07097528977800142,-0.7653924112969506
8.6,-68.1402369876943,18.2105934416164,269.72204610423046,278.7914987313774,0,9.212905586832859,204.40959219755445,11.032569488473943,18.990734870141015,0.003240760094657075,0.010723776907259223,0.13331945293478084,0.11589199449622486,-0.011891574076184611,-0.040785185773637864,0.47669659832779554,0.7397816901781937,-5.415529308733369,0.0,-0.2482060972112407,0.5910244139327046,-0.40348677036615616,0.5434438692980842,0.43881354718982724,-0.011891574076184611,-0.040785185773637864,0.47669659832779554
8.7,-68.13961062994397,18.212636416067262,269.74542970107586,278.81410205841865,0,9.226112171061768,204.6610771556343,11.03256364257473,18.991514323369195,0.006263577503204965,0.02042974450862552,0.23383596845406002,0.13124625004245535,0.03022817408547901,0.0970596760136633,1.0051651551927954,0.9318058027199584,394724368940.581,0.0,-918686870383.8287,0.5938858533816002,-0.40079561064376706,0.542089979320431,0.4390910224113823,0.03022817408547901,0.0970596760136633,1.0051651551927954
8.9,-68.1389737126728,18.214684802304863,269.7524163855476,278.8208396567686,0,9.251667658909124,205.16074781199663,11.032561895903612,18.991747212851585,0.003184586355899893,0.010241931188001931,0.034933422358562706,0.15252232533467405,-0.015394955736525277,-0.05093906660311767,-0.9945127304774813,0.8346250340171281,9.563405103948593,0.0,-0.08529651302281564,0.6476048613760212,-0.35239354941724876,0.4786073982927041,0.4768245884502457,-0.015394955736525277,-0.05093906660311767,-0.9945127304774813
9.02,-68.13832612992651,18.216738565158078,269.77682524569383,278.844430626443,0,9.266905376620768,205.45840883930293,11.032555793688577,18.992560841523126,0.00539652288568489,0.01711469044346133,0.2034071678854364,0.13600186071582027,0.018432804414875093,0.05727299379549535,1.4039478793906233,0.9526700173098007,3.6490466219065723,0.0,0.15781698807750644,0.5947752592417684,-0.39931990550905505,0.5446121833640278,0.436100417094037,0.018432804414875093,0.05727299379549535,1.4039478793906233
9.2,-68.13766794598466,18.21879763933747,269.8043293707909,278.87101414052097,0,9.289246533780641,205.90183946278617,11.032548917657302,18.99347764569303,0.0036565774547309814,0.011439300996624682,0.15280069498386561,0.11758536111890253,-0.009666363505299508,-0.031529941371314756,-0.28114707167539366,0.8471701792418374,-51047166086.68486,0.0,-868334607990.7029,0.5930186963493759,-0.4003214030360326,0.548238687895184,0.43301956208272646,-0.009666363505299508,-0.031529941371314756,-0.28114707167539366
9.3,-68.13699923536038,18.220861999436252,269.8089653513622,278.8754708840033,0,9.301329535281177,206.14658222417873,11.03254775866216,18.99363217837874,0.0066871062428218876,0.020643600987817184,0.046359805712653974,0.1205819255100948,0.03030528788090863,0.09204299991192372,-1.0644088927121014,0.8405477589570147,58226048433.08474,0.0,-6869256045.109375,0.6824105210035472,-0.3156521179374209,0.4340495563389148,0.4962666661254605,0.03030528788090863,0.09204299991192372,-1.0644088927121014
9.5,-68.13631992280001,18.22293158993128,269.83742767919597,278.90297722483854,0,9.325205286370707,206.63257072314389,11.0325406430802,18.994580922639866,0.0033965628018251103,0.010347952475147118,0.1423116391688955,0.1081432039788005,-0.016452717204983945,-0.05147824256335051,0.4797591672812094,0.6550455775816328,58226048433.004196,0.0,-6869256044.874339,0.5941316145009632,-0.398630617467141,0.5503999627548262,0.4303035399200554,-0.016452717204983945,-0.05147824256335051,0.4797591672812094
9.6,-68.13563011328286,18.22500636518409,269.84209334736454,278.90745829043885,0,9.336804070075642,206.87379486130766,11.032539476663159,18.99473644491215,0.006898095171550291,0.020747752528080882,0.04665668168570408,0.08684002603350541,0.03501532369725193,0.10399800052933801,-0.9565495748319176,0.7797768234787869,-88105108884.2532,0.0,-856187133651.5928,0.6844177907069497,-0.3138640900121607,0.43510839473926616,0.4937026489619793,0.03501532369725193,0.10399800052933801,-0.9565495748319176
9.8,-68.13492974202077,18.227086269441862,269.87040915024176,278.9348186579486,0,9.359698832486359,207.35264931030852,11.032532397712439,18.995680305008058,0.0035018563104216396,0.010399521288864066,0.14157901438608103,0.10474358605947134,-0.01698119430564317,-0.051741156196083805,0.4746116635018822,0.6644438132937043,-88105108877.94023,0.0,-856187133651.824,0.5960412248865059,-0.39631429847796923,0.5516317860358527,0.42821981235412754,-0.01698119430564317,-0.051741156196083805,0.4746116635018822
9.91,-68.13421889445785,18.229171276838468,269.87505668352196,278.93927778233814,0,9.371899067548618,207.61395197282562,11.032531235829119,18.995835222784066,0.006462250572073233,0.018954612696411195,0.042250302547328054,0.1265009984431244,0.02691267510592371,0.07777355825042885,-0.9029882894432135,0.7895352988555122,-37057942796.63655,0.0,12147474338.72706,0.6872432673708885,-0.31113142115300163,0.43479160362076125,0.4917826670853558,0.02691267510592371,0.07777355825042885,-0.9029882894432135
10.11,-68.13349750627009,18.23126133139545,269.90311064423724,278.96638060455587,0,9.393757670112091,208.08523338561238,11.03252422233894,18.996770354807907,0.0036069409387806802,0.01045027278491876,0.14026980357641655,0.12383197633942356,-0.014276548166462812,-0.04252169955746233,0.4900975051454442,0.8227108463058765,-326322124012.8615,0.0,-1678296213930.148,0.5980114260371124,-0.3939539837356352,0.5527341533729657,0.426224763150797,-0.014276548166462812,-0.04252169955746233,0.4900975051454442
10.21,-68.13276557336506,18.233356387023072,269.92816403077563,278.9905782761071,0,9.404543563826579,208.31900697273568,11.032517958992306,18.997605467692523,0.007319329050261454,0.02095055627620438,0.25053386538388267,0.14520454218530204,0.03712388111480721,0.10500283491285471,1.1026406180746455,1.1507478328310896,-326322124019.4798,0.0,-1678296213930.1528,0.6014876116055543,-0.3908492604119029,0.5505629567209734,0.4270011000069832,0.03712388111480721,0.10500283491285471,1.1026406180746455
10.4,-68.13202326188154,18.235456397521297,269.93506794289914,278.99721390924503,0,9.42415913391567,208.75970075385504,11.032516233014276,18.997835598096636,0.003906902544845023,0.011052686832762906,0.0363363795973951,0.16180287800471885,-0.01796013950219179,-0.05209404970232369,-1.1273551883499375,1.0885219719750665,41301451224210.89,0.0,-12412811536.952831,0.6600447105359111,-0.3398594279933089,0.4806005074238383,0.46675443389599985,-0.01796013950219179,-0.05209404970232369,-1.1273551883499375
10.5,-68.13127044818917,18.237561316580827,269.959853981761,279.0211486921987,0,9.434444991005645,208.9897959256961,11.03251003650456,18.998661799392032,0.007528136923724587,0.02104919059529927,0.24786038861862014,0.1438390967644817,0.03621234378879577,0.099965037625364,2.1152400902122577,1.158870105338206,41301451224210.89,0.0,-12412811536.952831,0.6034965261132675,-0.38848010951361067,0.5515158855482927,0.4250945488587142,0.03621234378879577,0.099965037625364,2.1152400902122577
10.7,-68.130507208888,18.239671107784126,269.9857063499236,279.04611312098154,0,9.4542580720486,209.4461108084199,11.03250357341252,18.999523544997455,0.003816196505823668,0.01054895601649623,0.1292618408129447,0.11920951195453904,-0.018559702089504658,-0.05250117289401539,-0.5929927390283793,1.0202172324373007,41301451224210.89,0.0,-12412811536.952831,0.6033360048756039,-0.3881905263427953,0.5532431758604119,0.4233388345549391,-0.018559702089504658,-0.05250117289401539,-0.5929927390283793
10.8,-68.12973359080837,18.241785704606432,269.99026965137546,279.0504776044466,0,9.46381831028365,209.6723102387163,11.032502432587156,18.99967565504585,0.007736180796342641,0.021145968223059395,0.045633014518670544,0.12159879503861044,0.03919984290518917,0.10597012206563014,-0.8362882629427296,0.962356475949834,41301451224210.89,0.0,-12412811536.952831,0.6960781621594889,-0.3024734718035252,0.4327389962840957,0.4865408021068979,0.03919984290518917,0.10597012206563014,-0.8362882629427296
11.0,-68.1289495410102,18.243905070416798,270.0158433915489,279.0751682257477,0,9.48257315403836,210.120742811271,11.032496039152113,19.00052811305163,0.003920248990851874,0.010596829051827721,0.1278687008672823,0.09486334712525107,-0.019079659027453903,-0.052745695856158556,0.41117843174306024,0.6063640447599201,41301451224210.89,0.0,-12412811536.952831,0.6052937856532303,-0.3858615480714784,0.5541672897542127,0.4214604533475635,-0.019079659027453903,-0.052745695856158556,0.41117843174306024
11.1,-68.12815513678288,18.246029158479097,270.02031377733726,279.07943843071865,0,9.491600509133468,210.34295602326654,11.032494921555665,19.000677125911242,0.007944042273209134,0.02124088062299031,0.04470385788351921,0.07818470231332045,0.04023793282357275,0.10644051571162626,-0.8316484298376339,0.6378491242440405,41301451224210.89,0.0,-12412811536.952831,0.7002116496161329,-0.29823275444473074,0.4299462848870509,0.48570264774858485,0.04023793282357275,0.10644051571162626,-0.8316484298376339
11.31,-68.12735034564481,18.24815794195308,270.0443962171112,279.1026819320389,0,9.51012075599029,210.80520245661052,11.032488900945722,19.00147987390371,0.0038323387526940436,0.010137064161834016,0.11467828463791839,0.09570277421252207,-0.019579540573881303,-0.05287531648169642,0.33321155597332813,0.5724453909176208,41301451224210.89,0.0,-12412811536.952831,0.6084771153146283,-0.38261020875925134,0.55368598424344,0.4204721859338185,-0.019579540573881303,-0.05287531648169642,0.33321155597332813
11.41,-68.12653523534296,18.250291343895398,270.0484300207368,279.1065253518346,0,9.518585572674432,211.0232032194721,11.032487892494816,19.00161433402456,0.008151103018576607,0.021334019423164895,0.04033803625588931,0.11638766487411038,0.04318764265882579,0.11196955261330918,-0.7434024838202934,0.6761292688248339,41301451224210.89,0.0,-12412811536.952831,0.7115888809299834,-0.2855917993464469,0.41484330330617836,0.48988123293803654,0.04318764265882579,0.11196955261330918,-0.7434024838202934
11.6,-68.1257097138525,18.252429317260628,270.0746404995911,279.1318235905413,0,9.534352622539444,211.43359810560466,11.032481339875101,19.00248801665304,0.004344849949763784,0.011252491395945209,0.1379498887068194,0.1128381072054355,-0.020032910888488596,-0.05306067382747217,0.5137465918470019,0.6992498719985241,41301451224210.89,0.0,-12412811536.952831,0.6080063564374006,-0.38212084624159287,0.5571628086693465,0.4169910479075186,-0.020032910888488596,-0.05306067382747217,0.5137465918470019
11.7,-68.1248738993765,18.254571824902314,270.0977052665796,279.154076141812,0,9.542478248138067,211.64757386401845,11.032475573683355,19.003256842219322,0.008358144760052285,0.021425076416861165,0.23064766988511648,0.13878062719457462,0.04013294810288515,0.10172585020915992,0.9269778117829741,1.1063230325364888,41301451224210.89,0.0,-12412811536.952831,0.6121091657819016,-0.3786183108772384,0.5541115734356176,0.41824742440205837,0.04013294810288515,0.10172585020915992,0.9269778117829741
11.91,-68.12402786034536,18.256718819574022,270.10410133615255,279.16019865407867,0,9.558521339111604,212.09233335092716,11.032473974665962,19.003470044538417,0.004028757291101605,0.010223784150991927,0.030457474156805893,0.15513321770707375,-0.020616130804526962,-0.05333948698032949,-0.9532866463252847,1.0725300827020974,41301451224210.89,0.0,-12412811536.952831,0.6764661544107393,-0.32342790228769475,0.47508241415547836,0.460526474503616,-0.020616130804526962,-0.05333948698032949,-0.9532866463252847
12.0,-68.12317146541659,18.25887025393036,270.12602052432106,279.1813385557178,0,9.565338377177664,212.28102409047852,11.032468494868919,19.004200684144035,0.00951549920860848,0.023904826181543486,0.2435465352056734,0.13207934626200932,0.06096379908340982,0.15201157811723978,2.3676562338763096,1.0766792619795138,-98054227339919.7,0.0,-757398468413.305,0.6151722390221014,-0.3754867345334573,0.5536066649380428,0.41724392034170255,0.06096379908340982,0.15201157811723978,2.3676562338763096
12.2,-68.12230484347421,18.261026080528037,270.1515384486735,279.2059584193827,0,9.57971409712487,212.696166348446,11.032462115387832,19.00505128162245,0.004333109711893728,0.010779132988378886,0.12758962176207023,0.13818678956109195,-0.025911947483573852,-0.06562846596582324,-0.579784567218018,1.3730020044867002,-98054227339919.7,0.0,-757398468413.305,0.6118582273186679,-0.3775449702800766,0.558677599706535,0.4134835482396104,-0.025911947483573852,-0.06562846596582324,-0.579784567218018
12.4,-68.12142802362848,18.263186251826905,270.1555518283917,279.20976901202823,0,9.593123517182995,213.10549604073105,11.032461112042903,19.00518506094639,0.0043840992286447765,0.010800856494341758,0.020066898591153296,0.14120310683226417,0.00025494758375524173,0.00010861752981435856,-0.5376136158545818,1.622066029661236,-98054227339919.7,0.0,-757398468413.305,0.7189071765103217,-0.2786204592109027,0.41379097177430835,0.4840662588418412,0.00025494758375524173,0.00010861752981435856,-0.5376136158545818
12.5,-68.12054090521545,18.26535072019101,270.18168018426684,279.234975311733,0,9.599786040553841,213.30795839382168,11.032454579953933,19.00605600614223,0.008871184130327978,0.021644683641035632,0.26128355875130277,0.11782524105210446,0.04487084901683218,0.10843827146693913,2.4121666016015033,1.2344112547291528,-98054227339919.7,0.0,-757398468413.305,0.6128267605897327,-0.37596794584048443,0.5604128949632321,0.4111311863195378,0.04487084901683218,0.10843827146693913,2.4121666016015033
12.6,-68.11964365779642,18.267519437889625,270.1858053387151,279.23888970737744,0,9.606038736568184,213.50894039868865,11.032453548665321,19.006193511290505,0.00897247419032968,0.021687176986162703,0.04125154448274785,0.10173237309283212,0.001012900600017023,0.0004249334512707052,-2.200320142685557,1.2913940568879236,-98054227339919.7,0.0,-757398468413.305,0.7186547545341319,-0.2793929505658678,0.41795144290588654,0.4804076543233597,0.001012900600017023,0.0004249334512707052,-2.200320142685557
12.8,-68.11873617115768,18.26969233709834,270.2112993157935,279.26347801597217,0,9.618144713736385,213.90642769994,11.03244717517105,19.00704331052645,0.004537433193689797,0.010864496043581027,0.12746988539191695,0.12306866162813093,-0.022175204983199297,-0.05411340471290809,0.4310917045458432,1.272618074782431,-98054227339919.7,0.0,-757398468413.305,0.614979593610654,-0.37352740019868386,0.5607939281125821,0.4096187873320108,-0.022175204983199297,-0.05411340471290809,0.4310917045458432
12.9,-68.11781858530996,18.271869409900074,270.2154377412153,279.26740091573566,0,9.623824505824299,214.10291533028746,11.032446140564696,19.00718125804051,0.00917585847716399,0.021770728017323014,0.04138425421786011,0.11863559620303846,0.04638425283474208,0.10906231973742025,-0.8608563117405715,1.0101812925425344,-98054227339919.7,0.0,-757398468413.305,0.7205421501450062,-0.2776628991753319,0.4183461871745994,0.478235080229834,0.04638425283474208,0.10906231973742025,-0.8608563117405715
13.1,-68.11689081048804,18.274050588286155,270.2413070423655,279.29234821340395,0,9.634782973649124,214.491334887058,11.032439673239407,19.00804356807885,0.004638874109588203,0.01090589193040618,0.12934650575118714,0.11588789658056657,-0.02268492183787901,-0.05432418043458436,0.43981125766663676,0.7778963558579916,-98054227339919.7,0.0,-757398468413.305,0.6161118341900286,-0.3718378298095424,0.5622408845658853,0.40746536517365434,-0.02268492183787901,-0.05432418043458436,0.43981125766663676
13.2,-68.11595289715024,18.276235814157385,270.265205348316,279.31538635848347,0,9.64008225371969,214.6832495504536,11.03243369866292,19.0088401782772,0.009379133378075754,0.02185225871230053,0.23898305950467688,0.13475049704425782,0.04740259268487568,0.1094636678189439,1.0963655375349013,1.0362892806891792,-98054227339919.7,0.0,-757398468413.305,0.618967195808052,-0.3693320845205872,0.5604335652035733,0.40790641187704635,0.04740259268487568,0.1094636678189439,1.0963655375349013
13.4,-68.11500497597807,18.278425059325077,270.2715137898406,279.32140249500907,0,9.649684221289045,215.06244600009956,11.032432121552539,19.009050459661353,0.004739605860848403,0.010946225838459552,0.03154220762297638,0.15300014386495087,-0.023197637586136632,-0.0545301643692046,-1.037204259408497,0.9503182901835803,-98054227339919.7,0.0,-757398468413.305,0.6876791904839373,-0.3120438396696984,0.475150919558259,0.45161662584817336,-0.023197637586136632,-0.0545301643692046,-1.037204259408497
13.51,-68.11404686787567,18.280618275512143,270.2958521994301,279.3448623144344,0,9.654842275225526,215.26835139763472,11.032426036950142,19.009861739981005,0.00871007365813888,0.01993832897333267,0.2212582689956198,0.13651846630685527,0.03609516179354998,0.08174639213521058,1.7246914670240399,1.057728210675566,30419006695134.457,0.0,725926793617.1003,0.61995185012381,-0.367761153832876,0.561978111671081,0.405699444493313,0.03609516179354998,0.08174639213521058,1.7246914670240399
13.7,-68.1130787539694,18.28281539435414,270.32213401130696,279.3702005807267,0,9.663037462910298,215.61953260223407,11.032419466497172,19.010737800376898,0.005095336348778072,0.011563783378938172,0.13832532566766567,0.11511866251957507,-0.0190249332071622,-0.04407655575997116,-0.436489175410286,0.9296411641895155,-647832365910.0187,0.0,-706584299854.9746,0.6186435039121754,-0.3682686289399754,0.5647039476800267,0.40344501915444503,-0.0190249332071622,-0.04407655575997116,-0.436489175410286
13.8,-68.11210064560743,18.28501637740035,270.32622576143996,279.374065390301,0,9.666969318359119,215.80207290163648,11.03241844355964,19.010874192047996,0.009781083619770786,0.022009830462081624,0.04091750132999947,0.11783739264046353,0.046857472709926476,0.10446047083143303,-0.9740782433766482,0.9074170073534613,-709927516362.6602,0.0,-3838416933.154199,0.7279044681927211,-0.2704761953726384,0.41618011276858297,0.47306640829564706,0.046857472709926476,0.10446047083143303,-0.9740782433766482
14.0,-68.11111245435912,18.287221186114824,270.35274878755854,279.3996329193526,0,9.674426947852506,216.16237186624852,11.03241181280311,19.011758292918618,0.00494095624155479,0.011024043572369675,0.13261513059291066,0.10033392604861673,-0.02420063689108007,-0.05492893444855994,0.4584881463145576,0.6564138158812802,-709927516365.4456,0.0,-3838416932.900729,0.6198429591239273,-0.36653351741684526,0.565944470499649,0.40144083367963534,-0.02420063689108007,-0.05492893444855994,0.4584881463145576
14.1,-68.1101143320147,18.289429751877496,270.35681252916726,279.4034663276393,0,9.677768327319374,216.34011451823014,11.032410796867708,19.01189375097224,0.009981223444128808,0.022085657626718182,0.040637416087179336,0.08110290626807667,0.05040267202574036,0.11061614054348547,-0.9197771450573166,0.7471760796884203,-709927516355.6025,0.0,-3838416932.8975134,0.7305820471146917,-0.2678134247285511,0.41492664953773883,0.4715524546349617,0.05040267202574036,0.11061614054348547,-0.9197771450573166
14.3,-68.10910617058468,18.29164201598522,270.38366432756,279.42934786130746,0,9.684045763949957,216.69074666367496,11.03240408391811,19.012788810918664,0.005040807150109545,0.011061320538630012,0.13425899196363317,0.10032861186395077,-0.02470208147009618,-0.05512168544044056,0.4681078793822667,0.6635320244904376,-709927516347.3806,0.0,-3838416933.148528,0.6209363607206312,-0.36487567793219744,0.567256846916835,0.3994038622929275,-0.02470208147009618,-0.05512168544044056,0.4681078793822667
14.41,-68.10808813229946,18.293857959652836,270.3876846258338,279.43313494538256,0,9.687053398557447,216.88081797993723,11.032403078843542,19.012922820861128,0.009254893502037006,0.020144942432861874,0.03654816612559214,0.12319963263764647,0.03830987592661348,0.08257838085665371,-0.8882802348912866,0.7789047065219185,-62095150434.26099,0.0,702745882921.9484,0.7335866425749051,-0.26477264223250163,0.41301832088492973,0.4702785901721354,0.03830987592661348,0.08257838085665371,-0.8882802348912866
14.6,-68.10706008960872,18.296077534014284,270.4148603689029,279.4593258338563,0,9.691885330512319,217.20444565163936,11.032396284907774,19.01382867896343,0.005410751003864803,0.011681970323407845,0.14303022667951718,0.12041241877806241,-0.02023232893774849,-0.04454195847081079,0.5604318976522384,0.8089678620595236,-62095150434.26099,0.0,702745882921.9484,0.622013667850362,-0.3632320871662846,0.5685407113255413,0.3973951527454902,-0.02023232893774849,-0.04454195847081079,0.5604318976522384
14.7,-68.10602214518103,18.29830067012365,270.4394904035122,279.48305141737217,0,9.694243603590284,217.37238167213866,11.032390127399122,19.014649680117074,0.010379444276935637,0.0222313610936454,0.2463003460928812,0.14112577676389432,0.049686932730708525,0.1054939077023759,1.032701194133644,1.1274415026179017,-62095150434.26099,0.0,702745882921.9484,0.6253206888908143,-0.36047326034952737,0.566124759959166,0.3981655695552743,0.049686932730708525,0.1054939077023759,1.032701194133644
14.9,-68.10497440190332,18.30052733895626,270.44569627825086,279.48894696319513,0,9.697932466868796,217.70326335739577,11.032388575930437,19.014856542608364,0.005238716388546977,0.011133344163063382,0.031029373693342965,0.15844277387621344,-0.025703639441943166,-0.055490084652909784,-1.0763548619976855,1.057907500567746,-62095150434.26099,0.0,702745882921.9484,0.698448181327471,-0.30106688024711875,0.47439632740138143,0.4432572573198282,-0.025703639441943166,-0.055490084652909784,-1.0763548619976855
15.0,-68.10391673288036,18.302757471409763,270.46940564356566,279.5117775597301,0,9.699684029643766,217.86619431635535,11.032382648589108,19.015646854785523,0.01057669022955569,0.022301324535014624,0.23709365314800918,0.13773476623729192,0.05337973841008732,0.11167980371951282,2.0606427945466694,1.1415587308929407,-62095150434.26099,0.0,702745882921.9484,0.6277792755029797,-0.3578801031353751,0.5658178532140434,0.39707073678756305,0.05337973841008732,0.11167980371951282,2.0606427945466694
15.2,-68.10284922143425,18.304991028305196,270.49515315177433,279.5365783707485,0,9.70237181946891,218.1870002605127,11.032376211712055,19.016505105059146,0.005337557230546982,0.011167784477166305,0.128737541043336,0.11465265398842987,-0.02619566499504363,-0.05566770028924179,-0.5417805605233678,1.034540284841414,-62095150434.26099,0.0,702745882921.9484,0.6261385513924033,-0.35858853648970723,0.568824503241491,0.39471947059964474,-0.02619566499504363,-0.05566770028924179,-0.5417805605233678
15.3,-68.10177198110394,18.30722797038809,270.49829805707833,279.5395056064563,0,9.703318871113735,218.34486098772135,11.03237542548573,19.016609935235945,0.010772403303178482,0.022369420828951228,0.03144905303997758,0.11577970845950933,0.054348460726314225,0.11201636351784765,-0.9728848800335704,1.0235507783961975,-62095150434.26099,0.0,702745882921.9484,0.7619665975089215,-0.2320172367629198,0.3692512050520263,0.47877808397336113,0.054348460726314225,0.11201636351784765,-0.9728848800335704
15.5,-68.10068490564463,18.309468228329536,270.5246022155759,279.56484098562476,0,9.704813550534473,218.65546287267864,11.032368849446106,19.017486740519196,0.005435377296549878,0.011201289707223379,0.13152079248783413,0.09421943111200379,-0.026685130033143115,-0.05584065560863945,0.5003586972392845,0.7114474769407076,-62095150434.26099,0.0,702745882921.9484,0.6268870449103109,-0.3571893470476386,0.5703455405210041,0.39259950036532537,-0.026685130033143115,-0.05584065560863945,0.5003586972392845
15.6,-68.09958812902735,18.311711772727296,270.5275997852747,279.5676214030737,0,9.705159438312679,218.80819022595023,11.03236810005368,19.017586659509156,0.01096776617274035,0.02243544397760652,0.029975696987776353,0.07532601406470682,0.055323888761904916,0.11234154270383181,-1.0154509550005812,0.7917337884609639,-62095150434.26099,0.0,702745882921.9484,0.7681769330695664,-0.2246372960594424,0.3598588451278962,0.4795246566154384,0.055323888761904916,0.11234154270383181,-1.0154509550005812
15.8,-68.09848151543837,18.31395851410688,270.55359412610414,279.59265290010325,0,9.705451234258522,219.1084638150948,11.032361601468473,19.018453137536806,0.005533067944938323,0.01123370689791508,0.12997170414735068,0.09539070292047272,-0.027173491139009992,-0.056008685398456895,0.499980035797869,0.7153816441538546,-62095150434.26099,0.0,702745882921.9484,0.6285163486515941,-0.3551826999746189,0.5708709637940381,0.39104832414073026,-0.027173491139009992,-0.056008685398456895,0.499980035797869
15.91,-68.09736528927866,18.316208462922617,270.5564922999282,279.59533289638404,0,9.70515674847293,219.2706541433393,11.032360876925017,19.01854974333094,0.010147510542811863,0.020454080143072137,0.026347034764223252,0.1154535110558316,0.041949478162486946,0.08382157495597367,-0.9420424489375269,0.7818825553984103,-62095150434.26099,0.0,702745882921.9484,0.7730450575441035,-0.21893085141573698,0.35300680903246473,0.4794338474510651,0.041949478162486946,0.08382157495597367,-0.9420424489375269
16.1,-68.09623928516342,18.31846151955878,270.5830475705572,279.62090313457645,0,9.704293744548353,219.54582189342418,11.032354238107361,19.019434919018572,0.005926337448607571,0.011858192821914759,0.13976458225783878,0.11264426431233235,-0.022216700495811918,-0.04524151221661748,0.5969344604927093,0.7987211723014955,-62095150434.26099,0.0,702745882921.9484,0.6292228979663791,-0.35381486327157186,0.5723653472829179,0.3889620758282425,-0.022216700495811918,-0.04524151221661748,0.5969344604927093
16.21,-68.09510358792143,18.320717654330682,270.60848900375976,279.64539357714693,0,9.703565010561551,219.70223234012272,11.032347877749059,19.02028296679199,0.01032452038174375,0.020510316108193108,0.23128575638690105,0.137982847840518,0.03998348121032911,0.07865566623889449,0.8320106739005704,1.1683670459099773,-62095150434.26099,0.0,702745882921.9484,0.6310398815406315,-0.3521353574677579,0.57149184561888,0.38882699021205575,0.03998348121032911,0.07865566623889449,0.8320106739005704
16.4,-68.09395837259459,18.322976837485736,270.6125003672751,279.6491444686791,0,9.701337766311099,219.96736217026677,11.03234687490818,19.02041667890917,0.006027449088650811,0.01189043765818038,0.021112439554527854,0.15671873875302536,-0.02261616470048942,-0.045367781315857,-1.1061753517493458,1.1016238249395716,-62095150434.26099,0.0,702745882921.9484,0.7462302702342906,-0.2526644856365625,0.41135281458641276,0.45835565166790004,-0.02261616470048942,-0.045367781315857,-1.1061753517493458
16.5,-68.09280343443736,18.325238959204587,270.63810133082444,279.673785247074,0,9.700111070216082,220.1043312027646,11.032340474667294,19.021270044360815,0.011549381572279862,0.02262121718850064,0.25600963549322475,0.13677911106964333,0.05521932483628972,0.10730779530320109,2.348971959386936,1.204319901595791,-62095150434.26099,0.0,702745882921.9484,0.6321268640209083,-0.3505167150289721,0.5725162684029383,0.3870126389181176,0.05521932483628972,0.10730779530320109,2.348971959386936
16.71,-68.09163889891612,18.327504019602177,270.6649750661221,279.69965573642276,0,9.69661737315813,220.3861572640814,11.032333756233468,19.022165835537404,0.005545407244004027,0.010786001893287794,0.12797016808414238,0.11579059851304066,-0.028590353944170525,-0.0563581680724419,-0.6097117495670564,1.1313252811339833,-62095150434.26099,0.0,702745882921.9484,0.6314127860226504,-0.3505539009657446,0.5744015516151776,0.385347523239595,-0.028590353944170525,-0.0563581680724419,-0.6097117495670564
16.8,-68.09046492170872,18.329771978728893,270.66760024688773,279.7020589438977,0,9.69476240686503,220.5045198979427,11.032333099938278,19.022253341562923,0.013044191193342988,0.025199545852395863,0.029168675173549617,0.11813110149980204,0.08331982165932192,0.16015048843453433,-1.0977943656732545,1.113080193046359,-62095150434.26099,0.0,702745882921.9484,0.78700993846723,-0.20220805423456914,0.3323628042028821,0.47881335188032625,0.08331982165932192,0.16015048843453433,-1.0977943656732545
17.01,-68.08928129870385,18.332042746571616,270.69424834885643,279.7277070799182,0,9.690013423783132,220.775021494724,11.032326437912786,19.023141611628546,0.005636300023156958,0.010813180203446822,0.1268957236604923,0.09498443291661532,-0.035275672238980954,-0.06850650309023325,0.46536689755686794,0.7640759306963313,-62095150434.26099,0.0,702745882921.9484,0.6328679497751319,-0.348690002160964,0.5749681854968618,0.3838033691968511,-0.035275672238980954,-0.06850650309023325,0.46536689755686794
17.11,-68.08808827600049,18.334316323054868,270.6968666497905,279.73009944253175,0,9.687343775459846,220.90102607307088,11.032325783337551,19.02322888832635,0.011930227033616602,0.022735764832511537,0.02618300934045748,0.07572009498397698,0.0629392701045978,0.1192258462906497,-1.0071271432003697,0.858232994334031,-62095150434.26099,0.0,702745882921.9484,0.7890078532582413,-0.200325480634324,0.3313475525764355,0.47701688513830914,0.0629392701045978,0.1192258462906497,-1.0071271432003697
17.3,-68.08688563990732,18.33659259804189,270.7236344294899,279.7558593898624,0,9.681944023696332,221.13542212361364,11.032319091392628,19.024121147649666,0.00632966364825526,0.011980394668535522,0.14088305104953658,0.09602619019958239,-0.029476649396638445,-0.056607211389347066,0.6036844300477807,0.7619284910032945,-62095150434.26099,0.0,702745882921.9484,0.6339561049954572,-0.347074521033984,0.5759094295133601,0.38205662248626904,-0.029476649396638445,-0.056607211389347066,0.6036844300477807
17.41,-68.08567368694213,18.338871581335734,270.7260634698026,279.7580644309241,0,9.67836121181027,221.26811091169353,11.03231848413255,19.02420211566009,0.011017754229023772,0.02071802994404571,0.02208218466121677,0.12161901633044518,0.04261900527971396,0.07943304795918392,-1.0800078762574583,0.8940391792217923,-62095150434.26099,0.0,702745882921.9484,0.796823419916178,-0.18984025552144565,0.3159712410790231,0.47874344869420443,0.04261900527971396,0.07943304795918392,-1.0800078762574583
17.6,-68.0844521538313,18.34115316268042,270.75296185463577,279.78394678301703,0,9.671838252821594,221.49206935496062,11.032311759536341,19.02509872848786,0.006429121635981554,0.012008322866769106,0.14157044649024053,0.11919216110483066,-0.02415069785811677,-0.045840563564613385,0.628885588573805,0.9244925854171845,-62095150434.26099,0.0,702745882921.9484,0.6350146360570635,-0.3454829626739427,0.5768497484570256,0.3803186850529653,-0.02415069785811677,-0.045840563564613385,0.628885588573805
17.7,-68.08322120750908,18.343437321762,270.778374169965,279.8083891181563,0,9.66823268727574,221.6072705583609,11.032305406457509,19.0259458056655,0.012309463222095736,0.022841590815794663,0.2541231532922038,0.13535587837417662,0.058803415861143064,0.10833267949025788,1.1255270680196567,1.1677439925454585,-62095150434.26099,0.0,702745882921.9484,0.6372143147665186,-0.3435871505034391,0.57546447976087,0.3804555422110638,0.058803415861143064,0.10833267949025788,1.1255270680196567
17.9,-68.08198105511721,18.345724038209685,270.7825354038452,279.8122642319492,0,9.6599671980035,221.83212031178587,11.032304366149038,19.026084513461505,0.006200761959362943,0.011433582238424873,0.02080616940105536,0.1563314972876108,-0.030543506313664072,-0.05704004288684915,-1.1665849194557463,1.04073744813437,20.001725356909617,0.0,-0.10986536218758261,0.7515860880558747,-0.24793707522424419,0.4165152240383682,0.4473931460297335,-0.030543506313664072,-0.05704004288684915,-1.1665849194557463
18.01,-68.08073135400406,18.348013181596954,270.80685464642,279.8356447861769,0,9.655308430259389,221.95262027996372,11.032298286338394,19.026895154880666,0.011360919210480814,0.020810394429721043,0.22108402340718197,0.13586498875372655,0.046910520464706645,0.08524374719359923,1.8207077636920106,1.1286594093832143,6.569211727345342,0.0,0.10863777876541007,0.6397061265978473,-0.341061947729304,0.5747706659938343,0.37959386311856597,0.046910520464706645,0.08524374719359923,1.8207077636920106
18.2,-68.07947235172419,18.350304761442658,270.83277208993167,279.86057006738884,0,9.64654597866023,222.15543897824057,11.032291806977517,19.02775906966439,0.006626327788769526,0.01206094655633433,0.1364075974298614,0.11015007302671984,-0.024918902219533395,-0.0460497256494043,-0.44566539988063997,0.9992093436096819,6.569211727345342,0.0,0.10863777876541007,0.6384011302475708,-0.34148211850506244,0.577237126817012,0.3776655386237397,-0.024918902219533395,-0.0460497256494043,-0.44566539988063997
18.3,-68.07820420603778,18.35259874721214,270.8357792287307,279.86332213980614,0,9.641546575953903,222.25947103435806,11.032291055192816,19.027859307624357,0.012681456864100757,0.022939857694836648,0.030071387990346494,0.11315222827942366,0.06055129075331145,0.10878911138502162,-1.0633620943951338,0.9607072794782084,6.569211727345342,0.0,0.10863777876541007,0.7840247079683562,-0.21036627072918573,0.35666399180695346,0.46243062872495594,0.06055129075331145,0.10878911138502162,-1.0633620943951338
18.5,-68.07692663490987,18.35489501831836,270.8610167592846,279.8875854893565,0,9.631160573543445,222.46189603116898,11.032284745810179,19.02870055864282,0.006387855639573581,0.011481355531088908,0.12618765276954536,0.09546857674018448,-0.03146800612263599,-0.0572925108187389,0.48058132389599606,0.7006573184985896,6.569211727345342,0.0,0.10863777876541007,0.6403310827083164,-0.339338987862451,0.5771210350472792,0.3765055998787267,-0.03146800612263599,-0.0572925108187389,0.48058132389599606
18.6,-68.07563998650984,18.35719360412299,270.86396658018765,279.89027798075654,0,9.625582231959704,222.56027997522926,11.032284008354953,19.028798886006257,0.012866484000255514,0.022985858046311265,0.029498209030407032,0.07982561653033386,0.0647862836068184,0.11504502515222194,-0.9668944373913695,0.7744403430866034,6.569211727345342,0.0,0.10863777876541007,0.7873778640825552,-0.20665312338722455,0.35250093821319706,0.46159904062499274,0.0647862836068184,0.11504502515222194,-0.9668944373913695
18.8,-68.0743439392108,18.359494373937554,270.8906227921698,279.91591032513713,0,9.614058616464888,222.75136889183602,11.032277344301956,19.02968742640566,0.006480236495178838,0.011503849072820357,0.13328105991064423,0.1146069996801438,-0.03193123752538349,-0.05741004486745474,0.5189142544011879,0.721642774708425,6.569211727345342,0.0,0.10863777876541007,0.639875740959478,-0.33874922166107024,0.579618629895758,0.37396556637388745,-0.03193123752538349,-0.05741004486745474,0.5189142544011879
18.9,-68.0730389015889,18.36179738702451,270.89588279810465,279.9208344256351,0,9.607930057710307,222.8440653715732,11.032276029300473,19.029862759936822,0.01305037621904176,0.02303013086955068,0.05260005934872082,0.17610129111201264,0.06570139723863061,0.1152628179673057,-0.8068100056192513,1.0657272018090982,6.569211727345342,0.0,0.10863777876541007,0.7355553808140323,-0.26414072930399807,0.45328150260647965,0.4286301859098212,0.06570139723863061,0.1152628179673057,-0.8068100056192513
19.1,-68.07172460242273,18.364102502598403,270.9385601030191,279.96196759876386,0,9.595425463610212,223.02374177495693,11.032265359974245,19.031285336767304,0.006571495830840397,0.011525577869466567,0.2133865245721692,0.24331575217776594,-0.03239440194100635,-0.05752276500041975,0.8039323261172304,0.9301907012495789,6.569211727345342,0.0,0.10863777876541007,0.6301000821024184,-0.3440091769463548,0.5921401179848063,0.36606236269815684,-0.03239440194100635,-0.05752276500041975,0.8039323261172304
19.2,-68.07040116069274,18.36640966982698,270.981912714101,280.0037527186559,0,9.589110074511659,223.11071371301512,11.032254521821475,19.032730423803365,0.013234417299941298,0.02307167228575984,0.4335261108190117,0.29928833566374446,0.06662921469101044,0.1154609441629352,2.201395862468472,0.9053116318714178,6.569211727345342,0.0,0.10863777876541007,0.6303332616637229,-0.3433875708824242,0.59284587668028,0.3651009749467,0.06662921469101044,0.1154609441629352,2.201395862468472
19.4,-68.06906891558049,18.368719067832295,271.05698944070764,280.0762387420377,0,9.575799922451477,223.27890573501014,11.032235752639822,19.03523298135692,0.006661225561259722,0.011546990026580814,0.3753836330332674,0.34896779395670974,-0.032865958693408,-0.05762341129589534,-0.2907123889287227,0.8485599849191517,6.569211727345342,0.0,0.10863777876541007,0.6230806219677465,-0.3473291040191967,0.6013465805321937,0.35988237260491956,-0.032865958693408,-0.05762341129589534,-0.2907123889287227
19.5,-68.06772738646808,18.371030335691838,271.0982826943736,280.11602800802376,0,9.568902256951475,223.36011834377368,11.032225429326406,19.036609423145787,0.013415291124090154,0.023112678595431316,0.41293253665969,0.33792360870497307,0.06754065562830336,0.11565688568850338,0.3754890362642207,0.9898350172531678,6.569211727345342,0.0,0.10863777876541007,0.6322575731855081,-0.34126291353648075,0.5926622313762364,0.36406244587200237,0.06754065562830336,0.11565688568850338,0.3754890362642207
19.7,-68.06637709293754,18.37334369243967,271.1596807888186,280.1752735958198,0,9.554338420270977,223.5167587098137,11.032210079802795,19.038656026293953,0.006751467652677003,0.011566783739152028,0.30699047222498277,0.32188021699543506,-0.03331911735706587,-0.057729474281396645,-0.529710322173538,0.7467828481690453,6.569211727345342,0.0,0.10863777876541007,0.626430481500202,-0.34434084734043424,0.5996971802256904,0.35969087384815956,-0.03331911735706587,-0.057729474281396645,-0.529710322173538
19.8,-68.06501743477004,18.37565865706753,271.1753096399552,280.1902210781136,0,9.54662900696317,223.59217950532195,11.03220617259001,19.03917698799851,0.013596581675017013,0.023149646278603723,0.15628851136568533,0.31109888194562413,0.06845114022339913,0.1158286253945153,-1.507019608592953,0.7589982387325908,6.569211727345342,0.0,0.10863777876541007,0.6636045172627597,-0.32015537841281083,0.5593303708572691,0.3798409069314145,0.06845114022339913,0.1158286253945153,-1.507019608592953
20.0,-68.06364906194541,18.377975648525958,271.2460833658961,280.2585378786954,0,9.531055687310324,223.73720556134907,11.032188479158526,19.041536112196535,0.0068418641231460485,0.011584957292143414,0.3538686297045514,0.31207008468276215,-0.03377358775935494,-0.05782344493230175,0.9879005916943339,0.7780396690628008,6.569211727345342,0.0,0.10863777876541007,0.625666540523764,-0.3438046503259274,0.6023301146196798,0.3571248738264185,-0.03377358775935494,-0.05782344493230175,0.9879005916943339
20.1,-68.06227173464131,18.380294295725456,271.2781414869612,280.28938278268294,0,9.522962541520014,223.80680437628936,11.03218046462826,19.042604716232038,0.013773273040982107,0.023186471994982253,0.32058121065119394,0.3345136594737457,0.0693140891783596,0.11601514702838675,-0.33287419053357,0.698413128708957,6.569211727345342,0.0,0.10863777876541007,0.6397953561488084,-0.3347656089411938,0.5882326955266914,0.36411012789272124,0.0693140891783596,0.11601514702838675,-0.33287419053357
20.3,-68.0608854932327,18.38261474753756,271.36182832568534,280.37019551182334,0,9.506429765559973,223.94015811381485,11.032159542918578,19.045394277522846,0.006931207043052747,0.01160225906051697,0.41843419362067075,0.39560650819848336,-0.034210329989646925,-0.05792106467232662,0.48926491484738577,0.4773102357871933,6.569211727345342,0.0,0.10863777876541007,0.624838500010879,-0.34329993663148484,0.6049827517478704,0.35456716218587947,-0.034210329989646925,-0.05792106467232662,0.48926491484738577
20.4,-68.05949037829109,18.384936772796006,271.40369080682416,280.41052675364847,0,9.497894209975001,224.00390710958922,11.032149077298294,19.046789693560804,0.013951149416158456,0.023220252584473185,0.4186248113882219,0.41498528021694464,0.07019942373105859,0.11617993523956463,0.0019061776755114185,0.2964444887124557,6.569211727345342,0.0,0.10863777876541007,0.6349886597536613,-0.33677543667294396,0.5952269052001603,0.3592723737832291,0.07019942373105859,0.11617993523956463,0.0019061776755114185
20.51,-68.05808609058386,18.387260460297853,271.4546631573614,280.4596737133962,0,9.488348336249008,224.0717720395872,11.032136334210659,19.048488771912044,0.012766251883920865,0.021124431834964832,0.4633850048838252,0.406172526440945,-0.010771795747614176,-0.019052915904620875,0.4069108499600193,0.398069340397894,1086922535517.1963,0.0,-281959064414.3821,0.6320448261554934,-0.3380456073336146,0.5992747282739875,0.3565309315398289,-0.010771795747614176,-0.019052915904620875,0.4069108499600193
20.7,-68.0566734010737,18.3895857588046,271.54031340651494,280.54238443363454,0,9.471331260063305,224.1834088667562,11.03211492164837,19.051343780217167,0.00743520794821671,0.012238413193406626,0.45079078501873876,0.5305299079515456,-0.028058125977390623,-0.04676851916609638,-0.06628536771098219,1.8250726008373994,1086922535517.1963,0.0,-281959064414.3821,0.6259903703856116,-0.3411432959440788,0.6064207377364816,0.35215223506324217,-0.028058125977390623,-0.04676851916609638,-0.06628536771098219
20.9,-68.0552517509177,18.391912467043316,271.5957763857436,280.59587574597566,0,9.452386930748661,224.29326263823438,11.032101055903563,19.053192546191454,0.007108250779950279,0.011633541193578664,0.27731489614325355,0.5175506731591958,-0.0016347858413321623,-0.003024359999139819,-0.8673794443774291,3.17099165389237,1086922535517.1963,0.0,-281959064414.3821,0.6316829338972874,-0.33730908590226355,0.6013911822547182,0.35429916383893284,-0.0016347858413321623,-0.003024359999139819,-0.8673794443774291
21.0,-68.05382126146695,18.394240583707806,271.6997844287526,280.6963546852179,0,9.443416577585273,224.3452378494807,11.032075053892811,19.05665948095842,0.014304894507546148,0.023281166644899213,1.0400804300900142,0.48946916269037793,0.07196643727595767,0.11647625451320383,7.6276553394674975,3.1226401727633686,1086922535517.1963,0.0,-281959064414.3821,0.6252050751176571,-0.3405775438286049,0.6089955481381425,0.3496426361797469,0.07196643727595767,0.11647625451320383,7.6276553394674975
21.1,-68.0523822242656,18.396570117459678,271.7351389714996,280.7303800274284,0,9.433587048984613,224.39524216856668,11.032066215257124,19.057837965716654,0.014390372013508363,0.023295337518724705,0.3535454274702892,0.43686614552180136,0.0008547750596221409,0.0001417087382549178,-6.865350026197152,3.3815741554805343,1086922535517.1963,0.0,-281959064414.3821,0.6409654427341458,-0.330838411753759,0.5932429285918717,0.3574521984889872,0.0008547750596221409,0.0001417087382549178,-6.865350026197152
21.3,-68.05093453105029,18.39890109692953,271.7998076522006,280.7927789169393,0,9.413353756789146,224.4893293283274,11.03205004808695,19.059993588406687,0.007238466076557896,0.011654897349266988,0.32334340350502205,0.4900843733297666,-0.03575952968475246,-0.05820220084728879,-0.15101011982633636,3.5659447986841664,1086922535517.1963,0.0,-281959064414.3821,0.6309423346582083,-0.3362957977088142,0.6047385666376205,0.35086774260469983,-0.03575952968475246,-0.05820220084728879,-0.15101011982633636
21.4,-68.04947816374943,18.40123328071807,271.81840581133497,280.8105813576575,0,9.402844921386642,224.53340798736608,11.032045398547165,19.0606135270445,0.014563673008609923,0.023321837885391047,0.18598159134342437,0.3379698858705471,0.07325206932052183,0.11666940536124308,-1.3736181216160062,2.30420816098418,1086922535517.1963,0.0,-281959064414.3821,0.6620778936269027,-0.3168365501483142,0.5713923110792702,0.3671216284832166,0.07325206932052183,0.11666940536124308,-1.3736181216160062
21.6,-68.0480131044825,18.403566767397226,271.9271190916509,280.9156126930555,0,9.382038112473875,224.61562566862588,11.032018220227087,19.06423730305503,0.00732529633467028,0.011667433395778748,0.5435664015797592,0.6100299988520129,-0.036191883369697704,-0.058272022448060665,1.7879240511816488,3.8015827325427978,-2169668040671.8218,0.0,272013985134.7565,0.6266052535017429,-0.3377896876136668,0.6109255025993812,0.34645925229321184,-0.036191883369697704,-0.058272022448060665,1.7879240511816488
21.8,-68.04653949555929,18.405901375511302,271.9830243381707,280.9695255199462,0,9.360038138624455,224.68991180060564,11.032004243915457,19.066100811272356,0.007368044616029605,0.011673040570379142,0.2795262325989266,0.7748481413973339,0.0002137414067966266,2.8035873001972065e-05,-1.3202008449041678,4.79977725177785,1741866825977.8384,0.0,545367926338.54834,0.634313625751362,-0.33288091815168325,0.6037621446333791,0.3497253082411339,0.0002137414067966266,2.8035873001972065e-05,-1.3202008449041678
21.9,-68.04505743947928,18.40823728357812,272.1544924981951,281.1353069765174,0,9.350226709833542,224.72407635352403,11.03196137687545,19.071816416606502,0.014820560800075416,0.023359080668186538,1.7146816002440712,1.0432020671357045,0.0745251618404597,0.11686040097807644,14.35155367645175,4.906104169133352,2702624632909.1343,0.0,270977093739.479,0.6246016105651376,-0.337925925743022,0.6146058257530391,0.3434218626421195,0.0745251618404597,0.11686040097807644,14.35155367645175
22.01,-68.04356657893084,18.410574110090142,272.2807118213085,281.2572882998109,0,9.338622115317586,224.75936147849427,11.031929822044672,19.07602372737695,0.013553277713123328,0.021243877382009984,1.147448391939871,1.2941363502096503,-0.011520755335927753,-0.019229120783422697,-5.156665530038044,5.085954388825458,1351312316454.5786,0.0,135488546869.53299,0.6268198704240188,-0.33615659989559854,0.6132054320214426,0.3436199769041995,-0.011520755335927753,-0.019229120783422697,-5.156665530038044
22.21,-68.04206738679055,18.41291195351558,272.58665375938295,281.55326684060014,0,9.317787581159998,224.81734819391818,11.031853336560154,19.086221791979433,0.007495960701433573,0.011689217127184334,1.529709690372277,1.6817650353461928,-0.030286585058448886,-0.04777330127412842,1.9113064921620373,5.263988635663709,0.062223004139313386,0.0,-0.3360201397819206,0.6232555848977144,-0.33764256279107224,0.617623545363911,0.3407214872851402,-0.030286585058448886,-0.04777330127412842,1.9113064921620373
22.31,-68.04055972612247,18.41525081229959,272.7664734665825,281.7271521840233,0,9.307399413942523,224.84335436165958,11.031808381633354,19.092215782219416,0.01507660668082199,0.023388587840110164,1.7981970719955982,1.8412549681466643,0.07580645979388578,0.1169937071292608,2.684873816233268,2.687898732923837,0.2067709250979599,0.0,-0.33482069331011133,0.6256313152290506,-0.33582302007542886,0.6160246847565712,0.3410600304385631,0.07580645979388578,0.1169937071292608,2.684873816233268
22.5,-68.03904353017741,18.41759053486537,273.18788619936754,282.1349681476756,0,9.288025255769519,224.88727439718247,11.031703028450158,19.106262873312254,0.007979978658200102,0.012314329293572847,2.217961751500139,2.1099606007498126,-0.037350673803272845,-0.05828557129756443,2.2092877868659886,1.700373934163597,0.30704923834318254,0.0,-0.26917094504397815,0.6233048157855864,-0.33658581581005037,0.6191947156056301,0.3388200103005161,-0.037350673803272845,-0.05828557129756443,2.2092877868659886
22.7,-68.0375187623922,18.419931079615303,273.69034931649816,282.6213104656254,0,9.267613398223489,224.92572553980804,11.031577412670876,19.123011643883274,0.007623838926065245,0.011702723749671448,2.512315585653093,2.441537999195475,-0.0017806986606742922,-0.003058027719507006,1.471769170764777,2.8655176977158083,0.12854934521814335,0.0,-0.14523471957095233,0.6233861199270275,-0.336016391383854,0.6199300962174357,0.3378896358391882,-0.0017806986606742922,-0.003058027719507006,1.471769170764777
22.81,-68.03598574638889,18.422272564932097,273.9643728790383,282.88646678472304,0,9.256101927167604,224.94346972623535,11.03150890678024,19.132145762634607,0.013936509120976005,0.021286230152674966,2.491123295819568,2.67621241029653,0.05738791086282539,0.08712278548185061,-0.19265718030477627,2.5442531042051604,255878172773.83432,0.0,130897557420.21329,0.6252135765832626,-0.33452215425276155,0.6188606683409588,0.3379561882117831,0.05738791086282539,0.08712278548185061,-0.19265718030477627
22.9,-68.03444438597415,18.424614829179927,274.25124855035875,283.16408562164537,0,9.24717363829193,224.9561900051043,11.03143718786241,19.14170828501196,0.017126226830378604,0.026025158309216284,3.187507459116058,2.5361578872776587,0.03544130788225116,0.05265475729490362,7.737601814405459,3.5562574731879706,511756345547.5758,0.0,261795114840.50732,0.6254721301279692,-0.3338726505557474,0.6193886367457178,0.3371518712899897,0.03544130788225116,0.05265475729490362,7.737601814405459
23.1,-68.03289450513842,18.426957740705568,274.84559879614056,283.7395472681489,0,9.226466544080347,224.97866237724656,11.031288600300964,19.161519959871352,0.007749404178696185,0.011714557628206113,2.971751228909014,3.2428455557821914,-0.04688411325841143,-0.07155300340504984,-1.0787811510352043,12.318055972751893,275516170112.76587,0.0,524924419566.03107,0.6243113218668755,-0.3339748546307127,0.6213675287229345,0.3355570951596492,-0.04688411325841143,-0.07155300340504984,-1.0787811510352043
23.3,-68.0313362980551,18.42930137783954,275.1491332843781,284.03335616599463,0,9.20226010777742,224.99313866120556,11.031212716678905,19.171637776145936,0.007791035416602227,0.01171818566986009,1.5176724411875906,3.301129965850228,0.00020815618953020837,1.8140208269887335e-05,-7.270393938607144,15.537355840424803,275516170112.76587,0.0,524924419566.03107,0.6261124406486397,-0.3324904094935262,0.620334054990901,0.33558754368774873,0.00020815618953020837,1.8140208269887335e-05,-7.270393938607144
23.4,-68.02976994907999,18.431645678897237,275.7537059853818,284.6188355088777,0,9.19446664599207,224.9973774103485,11.031061573503655,19.191790199512727,0.01566348975103471,0.02344301057696946,6.045727010037596,3.1123491952796316,0.0787245433443265,0.11724824907109618,45.28054568850102,15.068279771046841,275516170112.76587,0.0,524924419566.03107,0.6250618121020599,-0.3325554618069583,0.6221536259247838,0.33410995439030866,0.0787245433443265,0.11724824907109618,45.28054568850102
23.6,-68.02819513275035,18.433990452180076,276.31023387178107,285.1578381866593,0,9.171923870258162,224.99985518102872,11.030922441532054,19.210341129059366,0.007874081648182483,0.011723866414197037,2.7826394319961483,3.080086867526493,-0.038947040514260574,-0.058595720813861274,-16.315437890207008,15.985351014684179,275516170112.76587,0.0,524924419566.03107,0.6255904054626797,-0.3317400861953302,0.6224234138663484,0.3334280337270926,-0.038947040514260574,-0.058595720813861274,-16.315437890207008
23.7,-68.02661253378425,18.436335715976643,276.53459161852595,285.3750144092484,0,9.159901392705136,224.9980940924433,11.030866352095368,19.21781972061753,0.015825989661096055,0.023452637965669043,2.2435774674489064,3.3118842625853033,0.07951908012913741,0.11728771551472256,-5.390619645472533,14.66566197575359,275516170112.76587,0.0,524924419566.03107,0.6282964174422112,-0.32980340440638845,0.6204231672331039,0.3339886522498676,0.07951908012913741,0.11728771551472256,-5.390619645472533
23.8,-68.02502166707968,18.438681668563824,276.81562460289035,285.64712247591365,0,9.148306213142776,224.99433309597197,11.030796093849277,19.22718748676301,0.015908667045607446,0.023459525871806997,2.8103298436439728,2.642447892333772,0.0008267738451139006,6.887906137953328e-05,5.667523761950583,5.661550301025361,275516170112.76587,0.0,524924419566.03107,0.6278930275092206,-0.3295156953607143,0.6215920472061374,0.33285594386511,0.0008267738451139006,6.887906137953328e-05,5.667523761950583
24.0,-68.02342282771396,18.44102786820793,277.3509620044733,286.16571018701865,0,9.124435981147034,224.98081213686774,11.03066225949888,19.245032066815778,0.007994196828633476,0.011730998220524966,2.676687007914618,2.762719020272211,-0.03957235108486999,-0.05864263825641036,-0.6682141786467756,3.0841192650458473,275516170112.76587,0.0,524924419566.03107,0.6267823235582292,-0.3296015754075567,0.6234669777752732,0.3313542635723451,-0.03957235108486999,-0.05864263825641036,-0.6682141786467756
24.1,-68.02181581094284,18.44337464316587,277.6208081052008,286.4270213988735,0,9.11231926788499,224.9710527751641,11.0305947979737,19.254026936840027,0.01607016771117719,0.023467749579424102,2.698461007275303,2.8607807477113743,0.08075970882543598,0.1173675135889897,0.21773999360684607,3.306107845887825,275516170112.76587,0.0,524924419566.03107,0.6287878763326233,-0.3280294124354824,0.6221951719055688,0.3315051722247205,0.08075970882543598,0.1173675135889897,0.21773999360684607
24.3,-68.0202001121997,18.44572160168628,278.29760828932797,287.0828295949983,0,9.089057586037809,224.94553845617358,11.030425597927668,19.2765869429776,0.008078493715686393,0.01173479260204506,3.384000920635811,2.9586997970508877,-0.039958369977454125,-0.058664784886895416,3.427699566802552,2.7389037483880236,275516170112.76587,0.0,524924419566.03107,0.6272244056080667,-0.3283034647626016,0.6245893457256985,0.3296885336805372,-0.039958369977454125,-0.058664784886895416,3.427699566802552
24.4,-68.0185770370949,18.44806900201065,278.57099984343995,287.34762923300406,0,9.07657999510314,224.9297846328522,11.03035725003914,19.285699994781332,0.01623075104802786,0.02347400324371357,2.7339155411198717,3.044848606832677,0.08152257332341642,0.1173921064166876,-6.500853795159532,2.9554857657695335,275516170112.76587,0.0,524924419566.03107,0.6295036668533138,-0.32663952492907794,0.6229666885471512,0.3300670524801518,0.08152257332341642,0.1173921064166876,-6.500853795159532
24.6,-68.01694535141483,18.450416862374478,279.2310072564529,287.9872881756867,0,9.052371332556314,224.8922871593628,11.030192248185886,19.307700241881765,0.008158428400335422,0.011739301819133463,3.3000370650648376,3.0941661717897313,-0.04036161323846162,-0.058673507122899704,2.8306076197247894,3.0745683002193496,12582875414.90647,0.0,-5183390952.843979,0.6279907450678495,-0.3269001745823607,0.6252761657950965,0.3283193817850728,-0.04036161323846162,-0.058673507122899704,2.8306076197247894
24.71,-68.0153061511213,18.452764721008414,279.57281681961564,288.31848067915104,0,9.03862899354893,224.8682612775204,11.030106795795096,19.319093893987187,0.014901820850354928,0.021344169399416735,3.107359665115584,2.7483850010669686,0.06130356772745038,0.08731697800257565,-1.7516127268114043,3.678978929099231,6868965842.115899,0.0,249205123980.92407,0.629608300912572,-0.3255627898461757,0.6243559366983763,0.32830157111876873,0.06130356772745038,0.08731697800257565,-1.7516127268114043
24.9,-68.01365901235056,18.455112886139396,280.13239722650997,288.86088170563977,0,9.014231019021729,224.82107954624416,11.029966900693372,19.337746574217,0.00866915142492391,0.012358763847275085,2.945160036285965,3.413566737014434,-0.032803523291742596,-0.047291608169167144,-0.8536822569980063,11.188225381359937,199295586670.4784,0.0,-243551323354.67593,0.6289539363483518,-0.3254054224923711,0.625738342489344,0.32707764170478437,-0.032803523291742596,-0.047291608169167144,-0.8536822569980063
25.1,-68.01200405141266,18.457460905991788,280.4634097730513,289.18166397562635,0,8.985495933958338,224.76364584287256,11.029884147556738,19.348780325768374,0.008274804689491926,0.01174009926195635,1.65506273270663,3.314467257561563,-0.0019717336771598953,-0.0030933229265936355,-6.450486517896582,13.87732765009319,406242116591.79846,0.0,259056510.97700197,0.6304339588657449,-0.32411845923183524,0.6249865665724753,0.3269434805864681,-0.0019717336771598953,-0.0030933229265936355,-6.450486517896582
25.2,-68.01034082479057,18.459809308788536,281.0694002574889,289.7691819016051,0,8.975355301623052,224.7319440989134,11.029732649935628,19.368980008582962,0.016632266220853252,0.023484027967484666,6.059904844376107,3.3781471621934713,0.08357461531361504,0.11743928705528567,44.048421116695714,14.769118135971961,406242116591.79846,0.0,259056510.97700197,0.6295749657493839,-0.3240488663302311,0.6265923385067789,0.32559136360837393,0.08357461531361504,0.11743928705528567,44.048421116695714
25.4,-68.00867033913936,18.462157712752287,281.6303069804064,290.3130384922217,0,8.94821553070147,224.66257787119167,11.029592423254899,19.38767689934688,0.008352428256088758,0.011742019818754598,2.8045336145874087,3.077509012290661,-0.04139918982382262,-0.05871004074365055,-16.27685614894355,16.581857517100637,406242116591.79846,0.0,259056510.97700197,0.6300312021249522,-0.32334155111313456,0.6268024270590944,0.32500714316083645,-0.04139918982382262,-0.05871004074365055,-16.27685614894355
25.5,-68.00699202128546,18.46450579610657,281.9728816447214,290.6451357258636,0,8.935096251230048,224.6249164703611,11.02950677958882,19.39909605482405,0.01678317853901466,0.023480833542847912,3.4257466431500427,3.9664152745377956,0.08430750282925781,0.11738813724093147,6.212130285626253,24.607109346945,406242116591.79846,0.0,259056510.97700197,0.6314304803737116,-0.322094747828679,0.6261330420567858,0.3248198508726316,0.08430750282925781,0.11738813724093147,6.212130285626253
25.7,-68.0053063982258,18.466853777076885,282.2612687556854,290.92468136325215,0,8.904557128310831,224.54364546385537,11.029434682811079,19.408708958522848,0.008428115298286827,0.011739904851566549,1.4419355548201958,3.3264887616416012,-0.04177531620363931,-0.058704643456407024,-9.91905544164927,18.88244060047679,406242116591.79846,0.0,259056510.97700197,0.6322675828868454,-0.3211853943473172,0.6259623760219266,0.3244206372803196,-0.04177531620363931,-0.058704643456407024,-9.91905544164927
25.8,-68.00361263712698,18.469201953891872,282.8712275208833,291.51626731914183,0,8.893782090320075,224.50003947021156,11.029282193119778,19.429040917362776,0.016937610988207768,0.023481768149870796,6.099587651978508,3.3985435279695877,0.0850949568992082,0.11741863298304081,46.57652097158246,16.304663203444022,406242116591.79846,0.0,259056510.97700197,0.6309768562972842,-0.32133567153391146,0.6279888979380772,0.3228645801006451,0.0850949568992082,0.11741863298304081,46.57652097158246
26.01,-68.00191135532452,18.47154994478448,283.47189205023255,292.09890737193587,0,8.864007371422817,224.40203165560322,11.029132026987442,19.449063068341083,0.008101341916447544,0.011180909012424599,2.860307282615578,3.3472943489905296,-0.04207747177028661,-0.05857551970212451,-15.42514461601389,15.073434717586869,406242116591.79846,0.0,259056510.97700197,0.6313474395577653,-0.32065021507249064,0.6283071261792608,0.32220180839060797,-0.04207747177028661,-0.05857551970212451,-15.42514461601389
26.1,-68.00020295032196,18.473897287993047,283.7567132559826,292.3750755453177,0,8.851380837055933,224.3573630475999,11.029060821686004,19.45855710853275,0.018982277806224454,0.026081591206287693,3.164680063889596,3.630360176738191,0.12089928766418807,0.16556313548736798,3.3819197919335364,13.402097566072817,3494409676.5884805,0.0,244363208849.54672,0.6333724976290708,-0.3191209906693802,0.6269493583479363,0.3223904071594207,0.12089928766418807,0.16556313548736798,3.3819197919335364
26.2,-67.99848688979006,18.476244431762506,284.07366215271367,292.682441148179,0,8.837259906350814,224.30585847190287,11.028981584461821,19.469122071757123,0.01716060531904909,0.023471437694589314,3.169488967310553,3.041860094958808,-0.018216724871754013,-0.02610153511698434,0.04808903420956959,4.686901424239585,3494409676.5884805,0.0,244363208849.54672,0.6334019727113602,-0.3186047450397862,0.6276180380542646,0.3215409083031362,-0.018216724871754013,-0.02610153511698434,0.04808903420956959
26.4,-67.99676359156598,18.47859152434547,284.6451221573353,293.2368731445881,0,8.80809645155065,224.19694427119282,11.028838719460666,19.488170738577843,0.008616491120392342,0.011735462914828118,2.8573000231082903,3.06362543205641,-0.0427205709932839,-0.05867987389880619,-1.560944721011318,1.7902918546244375,3494409676.5884805,0.0,244363208849.54672,0.6324442188809056,-0.3186253182591956,0.6292298877247072,0.3202529702630404,-0.0427205709932839,-0.05867987389880619,-1.560944721011318
26.5,-67.99503251365246,18.480937764003418,284.9608242890851,293.5430818239198,0,8.793669325470615,224.13953948679304,11.028759793927728,19.498694142969505,0.017310779135186503,0.02346239657946081,3.157021317497834,2.721967660620206,0.08694288014794037,0.11726933664632525,2.997212943895395,2.6253154534241174,3494409676.5884805,0.0,244363208849.54672,0.6341178469326415,-0.31723188826518306,0.6282883725191264,0.3201752742272346,0.08694288014794037,0.11726933664632525,2.997212943895395
26.7,-67.99329434421693,18.48328385900781,285.55465056952715,294.11932666840636,0,8.764157845355884,224.018847306362,11.028611337357617,19.518488352317572,0.008690847177632608,0.011730475021956052,2.969131402210234,3.2597017272362088,-0.043099659787769626,-0.05865960778752399,-0.939449576438004,11.417305002967215,3494409676.5884805,0.0,244363208849.54672,0.6330763271656654,-0.31729777795858427,0.6299711606546212,0.31886175817812623,-0.043099659787769626,-0.05865960778752399,-0.939449576438004
26.9,-67.99154898159071,18.48562898764123,285.84594702254924,294.4018930666085,0,8.731257634545745,223.89032966901024,11.028538513244362,19.528198234084975,0.008726813131119147,0.01172564316711093,1.4564822651104288,3.2702707826372275,0.00017982976743269384,-2.4159274225610346e-05,-7.563245685499053,17.00114818453855,3494409676.5884805,0.0,244363208849.54672,0.6350335515373564,-0.3157975465955575,0.6286925738714805,0.3189826727973347,0.00017982976743269384,-2.4159274225610346e-05,-7.563245685499053
27.0,-67.98979650426817,18.48797392819854,286.4317689743622,294.970466125753,0,8.719077450211282,223.82314338951878,11.02839205775641,19.54772563247874,0.01752477322540333,0.023449405573074622,5.858219518129802,3.222655705225511,0.08797960094284056,0.11723762405963525,44.01737253019311,16.41818093612976,3494409676.5884805,0.0,244363208849.54672,0.6337637729151813,-0.31597342252809507,0.6306046701109912,0.3175563358372882,0.08797960094284056,0.11723762405963525,44.01737253019311
27.1,-67.98803664090586,18.490317758988002,286.7227724534966,295.25279544914235,0,8.703863605886283,223.75400942197925,11.028319306886626,19.557425748449887,0.017598633623094634,0.02343830789463619,2.910034791343564,3.2108911717482314,0.0007386039769130443,-0.00011097678438431855,-29.481847267861962,16.26405861899665,3494409676.5884805,0.0,244363208849.54672,0.6357187344632723,-0.31446036530660787,0.6293480284186852,0.3176435556235387,0.0007386039769130443,-0.00011097678438431855,-29.481847267861962
27.3,-67.98626986032163,18.492661268332437,287.3065811908001,295.8195108606793,0,8.673204767092841,223.60991079962054,11.0281733547023,19.57688603969334,0.008833902921168178,0.011717546722174219,2.9190436865175786,3.495844215452182,-0.04382365350963244,-0.058603805862310065,0.045044475870073146,14.783833196543744,3494409676.5884805,0.0,244363208849.54672,0.6344380318322284,-0.3146450616463612,0.6312566433488503,0.3162308004833628,-0.04382365350963244,-0.058603805862310065,0.045044475870073146
27.4,-67.98449563149386,18.49500355457034,287.5976008194355,296.1019027291914,0,8.65774556599126,223.5349525491609,11.02810059979514,19.586586693981186,0.01774228827770268,0.023422862379014975,2.9101962863541697,2.903467790118449,0.08908385356534691,0.11705315656841006,-0.08847400163409092,5.9953997442539215,3494409676.5884805,0.0,244363208849.54672,0.6363962093735368,-0.31312618358922834,0.6300030113244092,0.31630375206123457,0.08908385356534691,0.11705315656841006,-0.08847400163409092
27.6,-67.98271485356048,18.497345326057044,288.1738574748772,296.6613784012384,0,8.626536653598883,223.37923482686017,11.027956535631281,19.605795249162572,0.008903889666882365,0.0117088574335254,2.88128327720837,2.892617412901331,-0.04419199305410094,-0.058570024727447045,-0.14456504572899725,0.18542285434949451,9109738041.2125,0.0,115251331081.73145,0.6351182830739837,-0.3133207175836181,0.6318841060356857,0.314924389302455,-0.04419199305410094,-0.058570024727447045,-0.14456504572899725
27.8,-67.98092713581825,18.49968589116586,288.75313209490827,297.22384851646206,0,8.595060011551368,223.2158053548394,11.027811716976272,19.625104403163608,0.008938588711160409,0.011702825544084347,2.8963731001553685,2.8891398859930977,0.00017349522139022022,-3.0159447205260867e-05,0.07544911473499365,0.2597659578746664,18990258422.4625,0.0,233227094677.87518,0.635445668155163,-0.31265292051572197,0.6322230956694439,0.3142465774164824,0.00017349522139022022,-3.0159447205260867e-05,0.07544911473499365
27.9,-67.97913169772178,18.502025328289186,289.0387099196172,297.50103045136075,0,8.579174033712953,223.13120773855115,11.027740322520096,19.63462366398724,0.017954380964653564,0.02339437123325233,2.8557782470892943,2.8772570832581708,0.09015792253493347,0.11691545689168234,-0.4059485306607511,0.2781892692560975,18990258422.4625,0.0,233227094677.87518,0.6374643757923268,-0.31109889112710293,0.6309156442537717,0.31432801238679725,0.09015792253493347,0.11691545689168234,-0.4059485306607511
28.0,-67.97732910888269,18.50436375583967,289.3288641913941,297.7826731108913,0,8.56326494222575,223.0446931867965,11.02766778395215,19.64429547304647,0.018025888390979815,0.023384275504838237,2.9015427177688067,2.5826745650703176,0.0007150742632624949,-0.00010095728414094419,0.45764470679511743,1.6883273610192648,18990258422.4625,0.0,233227094677.87518,0.6377511576685814,-0.3104505748627553,0.6312945443737021,0.3136257318903681,0.0007150742632624949,-0.00010095728414094419,0.45764470679511743
28.2,-67.97552044906872,18.506701022251338,289.89904265492737,298.3364280393733,0,8.531146354983381,222.8659287422218,11.027525239336267,19.663301421830912,0.00904329906980198,0.011686332058342727,2.850892317666488,3.1086005122450184,-0.044912946605889334,-0.058489717232477756,-0.25325200051159324,9.908551627396577,18990258422.4625,0.0,233227094677.87518,0.6364651058901386,-0.31064158574548223,0.6331747337476533,0.3122558738172513,-0.044912946605889334,-0.058489717232477756,-0.25325200051159324
28.4,-67.97370398820301,18.50903715598074,290.1807087571993,298.6098669253041,0,8.495889790185657,222.67954380099016,11.0274548228107,19.672690291906644,0.009082304328558199,0.011680668647002831,1.4083305113595708,3.0465458737930327,0.0001950262937810983,-2.8317056699478473e-05,-7.212809031534613,12.80254252780369,18990258422.4625,0.0,233227094677.87518,0.6385105332836637,-0.3090770359416193,0.6318374724636107,0.3123413087155626,0.0001950262937810983,-2.8317056699478473e-05,-7.212809031534613
28.5,-67.97188151636284,18.51137176550807,290.73330484748254,299.14662309485385,0,8.482289073159915,222.58350394593364,11.027316673788128,19.69111016158275,0.01822471840171121,0.023346095273310774,5.525960902832516,2.9352943170601415,0.09142414073152881,0.11665426626307777,41.17630391472886,13.112848673411904,18990258422.4625,0.0,233227094677.87518,0.637181142047048,-0.30927201219051603,0.6337752238811754,0.3109340449188784,0.09142414073152881,0.11665426626307777,41.17630391472886
28.7,-67.97005201377927,18.513704859338336,291.2424276773347,299.6411802769474,0,8.448956378632584,222.3857508088605,11.027189393080667,19.708080922577825,0.009147512917877553,0.011665469151331861,2.5456141492608797,2.8082592099087575,-0.045386027419168445,-0.05840313060989477,-14.901733767858234,13.319477651842487,18990258422.4625,0.0,233227094677.87518,0.6376673091921432,-0.30850784845777474,0.633964684640539,0.3103096660696028,-0.045386027419168445,-0.05840313060989477,-14.901733767858234
28.8,-67.96821474083578,18.51603706600244,291.47695240059505,299.8688640463106,0,8.432008223328172,222.28404631583962,11.027130761899851,19.715898413353166,0.018372729434900942,0.023322066641035755,2.3452472326033225,2.9332476198734136,0.09225216517023258,0.11656597489703728,-2.003669166575544,12.059779691620523,18990258422.4625,0.0,233227094677.87518,0.6401792178956606,-0.3067364805258345,0.6321261645064662,0.3106441897661516,0.09225216517023258,0.11656597489703728,-2.003669166575544
28.9,-67.96637056806766,18.518367904058376,291.69850797337904,300.08394997387217,0,8.414878653080097,222.1804625388317,11.027075373006655,19.723283599112634,0.018441727681164758,0.02330838055936418,2.215555727839889,2.021587832596216,0.0006899824626381704,-0.0001368608167157491,-1.2969150476343627,4.890134719071367,18990258422.4625,0.0,233227094677.87518,0.6407451853621563,-0.30595278561164924,0.6322072427185045,0.3100846701563204,0.0006899824626381704,-0.0001368608167157491,-1.2969150476343627
29.1,-67.96452011616101,18.520696372092306,292.1051671540734,300.4789857325075,0,8.380107565583263,221.96767563099903,11.02697370821148,19.736838905135777,0.009252259533241027,0.011642340169650657,2.0332959034717812,2.234998519964968,-0.045947340739618,-0.058330201948566786,-0.9112991218405256,7.199757451613043,587643305843.55,0.0,734460440265.4314,0.6391457801041872,-0.30621528145238525,0.6344883089089974,0.30846305943799346,-0.045947340739618,-0.058330201948566786,-0.9112991218405256
29.3,-67.96266201595186,18.523024098719752,292.2986925033311,300.6668446789788,0,8.34302152353511,221.74742791358565,11.026925326874167,19.74328975011104,0.009290501045740062,0.011638633137227614,0.9676267462884914,2.131274949055695,0.00019120756249518011,-1.8535162115218962e-05,-5.328345785916468,8.58381571584793,587643305843.55,0.0,734460440265.4314,0.6420373366352161,-0.3042830155499174,0.6322322752584543,0.30900203063365933,0.00019120756249518011,-1.8535162115218962e-05,-5.328345785916468
29.4,-67.9607975884253,18.52534937258667,292.659951284066,301.0177829694172,0,8.3270594822842,221.63451843546756,11.026835012178983,19.755331709468866,0.018644275265700515,0.023252738669193248,3.612587807348936,2.100833273812276,0.09353774219960652,0.11614105531965882,26.44961061060501,8.79852557341447,587643305843.55,0.0,734460440265.4314,0.6401105872229085,-0.3046946145184378,0.6348513715513059,0.30721875601601795,0.09353774219960652,0.11614105531965882,26.44961061060501
29.6,-67.95892577471452,18.527672762370628,293.0253025614475,301.3727230385499,0,8.291445561402941,221.40315333108774,11.026743674359638,19.767510085381584,0.009359068553891214,0.011616948919783545,1.8267563869076493,1.8599285728848802,-0.04642603355904585,-0.05817894874704769,-8.929157102206307,9.850390446356121,587643305843.55,0.0,734460440265.4314,0.6404409133743459,-0.30396877155253565,0.6352321923221605,0.3064612279467948,-0.04642603355904585,-0.05817894874704769,-8.929157102206307
29.7,-67.95704703609992,18.52999573678191,293.23163560289436,301.57306428495974,0,8.273820013931235,221.28470798768143,11.026692091099276,19.77438785342981,0.018787386145931294,0.023229744112818692,2.06333041446844,2.3852901878094475,0.09428317592040282,0.11612795193035395,2.365740275607959,14.316268243117303,587643305843.55,0.0,734460440265.4314,0.6427332011348358,-0.3024007933304433,0.6334940572434501,0.3068111337440637,0.09428317592040282,0.11612795193035395,2.365740275607959
29.9,-67.95516158400825,18.532317224564675,293.39737397806874,301.73393880179816,0,8.235999163953377,221.04231803929207,11.026650656505483,19.779912465935624,0.009427260458352326,0.011607438913827692,0.8286918758719283,2.0541820653021885,-0.04680062843789501,-0.058111525994955206,-6.173192692982581,10.663642287182682,587643305843.55,0.0,734460440265.4314,0.644177021197128,-0.3012027170570796,0.6326579371436829,0.3066868487042237,-0.04680062843789501,-0.058111525994955206,-6.173192692982581
30.0,-67.95326881001168,18.534635624498048,293.7568164588709,302.0831784057983,0,8.219808180708444,220.91838420715567,11.026560795885281,19.791893881962363,0.018927739965732555,0.023183999333724285,3.5944248080215346,2.0218918785387676,0.09500479507380094,0.11576560419896428,27.65732932149567,9.462553866551925,587643305843.55,0.0,734460440265.4314,0.6414844245975924,-0.30187840603344285,0.6361653016894392,0.3044024801078146,0.09500479507380094,0.11576560419896428,27.65732932149567
30.2,-67.95136893582676,18.536952405397297,294.1482390194317,302.46354104745507,0,8.184068900255577,220.6650663675043,11.02646294024514,19.804941300647723,0.009499370924572792,0.011583904496248507,1.9571128028039266,1.9360916045228809,-0.047141845205798984,-0.058000474187379095,-8.186560026088069,9.050114417027931,587643305843.55,0.0,734460440265.4314,0.6416015624071949,-0.30128764972361544,0.6367091874120518,0.303602697461256,-0.047141845205798984,-0.058000474187379095,-8.186560026088069
30.3,-67.94946300331372,18.539268926114907,294.31474863610697,302.62518943321345,0,8.165869863734368,220.53569361851822,11.026421312840974,19.810491621203564,0.01905932513039916,0.023165207176098716,1.6650961667528226,2.0434994442867462,0.09559954205826231,0.11581302679850045,-2.9201663605109993,8.084290649918248,587643305843.55,0.0,734460440265.4314,0.64513738103849,-0.299198966452784,0.6336193875982462,0.3046378336976669,0.09559954205826231,0.11581302679850045,-2.9201663605109993
30.4,-67.94755050447536,18.54158372554177,294.4781755874701,302.78384343279345,0,8.147617728507905,220.40451928982168,11.026380456103132,19.815939186249004,0.019124988383652362,0.02314799426862684,1.6342695136313872,1.444482732613752,0.0006566325325320506,-0.00017212907471874877,-0.30826653121436054,4.087184537249637,587643305843.55,0.0,734460440265.4314,0.6455629340620266,-0.2984941294787963,0.6338109052301933,0.30402876384185407,0.0006566325325320506,-0.00017212907471874877,-0.30826653121436054
30.6,-67.94563052145621,18.543895412608244,294.7513322543057,303.0492247634369,0,8.110517626063595,220.13678929290208,11.026312166936423,19.825044408476856,0.009599915095748065,0.011558435332368168,1.3657833341778576,1.1654420108872139,-0.04762536643952081,-0.05794779468129254,-1.3424308972676289,2.4880352727556323,587643305843.55,0.0,734460440265.4314,0.6436130548001341,-0.2987916642502681,0.6365715236840767,0.3020967929322118,-0.04762536643952081,-0.05794779468129254,-1.3424308972676289
30.7,-67.94370504654158,18.546206506285344,294.81120331960204,303.107166583004,0,8.091175055477708,220.00024552374597,11.026297199170099,19.827040110653403,0.019254749146285076,0.023110936771005224,0.5987106529636449,0.8437768819860937,0.09654834050537217,0.11552501438637301,-7.6707268121422905,2.409999719509546,587643305843.55,0.0,734460440265.4314,0.6562008297622157,-0.2923360953106474,0.6240591731417205,0.3073926264821191,0.09654834050537217,0.11552501438637301,-7.6707268121422905
30.91,-67.94177222215666,18.548515475585834,294.92917786854395,303.2216215860121,0,8.050433925457158,219.70772426727808,11.026267705532863,19.83097259561813,0.009203925642490618,0.010995091907094476,0.561783566390007,0.5646775129933698,-0.04786106430378294,-0.057694499351955704,-0.1758432693982748,2.7138411091977694,587643305843.55,0.0,734460440265.4314,0.6488024238835624,-0.29537171229032305,0.6324537578723309,0.30300694793133703,-0.04786106430378294,-0.057694499351955704,-0.1758432693982748
31.11,-67.9398341208655,18.55082312956533,294.9401807885052,303.23203053554755,0,8.010577571516478,219.42189622015724,11.026264954802873,19.83133935961684,0.009690506455797311,0.01153826989748201,0.055014599806213677,0.34203815940818283,0.0024329040665334745,0.0027158899519376745,-2.5338448329189758,2.4754186502391304,10.337224563251343,0.0,0.20371936695237744,0.7206201924578148,-0.2562231403435682,0.5497914769821481,0.33583563302950775,0.0024329040665334745,0.0027158899519376745,-2.5338448329189758
31.21,-67.93788812537016,18.553128827323484,294.9638944690409,303.25480090604015,0,7.990821341109457,219.27635088452203,11.02625902638274,19.832129815634694,0.019459954953333358,0.023056977581532252,0.23713680535706436,0.2817941275979464,0.09769448497535908,0.1151870768405008,1.8212220555084808,0.99186215717157,9.38949321138687,0.0,0.20628180687191539,0.6805513273658383,-0.27848309874018684,0.5994496299427212,0.31616007922916767,0.09769448497535908,0.1151870768405008,1.8212220555084808
31.3,-67.93593743850977,18.55543302800504,294.9864334018795,303.2764276722927,0,7.973049121891111,219.1438674006834,11.02625339164953,19.832881113395985,0.021674298448854476,0.025602229795080412,0.25043258709539906,0.23345466904928286,0.024603816616901347,0.028280580150535153,0.14773090820371917,1.0053530663938106,9.38949321138687,0.0,0.20628180687191539,0.6827653170673028,-0.27698769262091605,0.5974086379937906,0.31656319937246374,0.024603816616901347,0.028280580150535153,0.14773090820371917
31.5,-67.93397817325946,18.557735360801008,295.04600588091466,303.3340741137519,0,7.933645564074849,218.8444214991993,11.026238498529771,19.834866862697154,0.009796326251532185,0.011511663979835204,0.2978623951759129,0.3990125912662554,-0.05938986098661166,-0.07045282907622628,0.23714904040257,1.064647683571734,9.38949321138687,0.0,0.20628180687191539,0.6579542861323376,-0.28899724201627774,0.6254114339762606,0.30403501396850385,-0.05938986098661166,-0.07045282907622628,0.23714904040257
31.6,-67.93201489272963,18.560035644949753,295.077889702197,303.36478793958565,0,7.913966283155863,218.6921055835275,11.02623052757445,19.8359296567399,0.019632805298357148,0.02300284148745358,0.3188382128234889,0.37347253648715745,0.09836479046824823,0.11491177507618212,0.20975817647575704,1.6941656347509433,9.38949321138687,0.0,0.20628180687191539,0.6717361889636482,-0.28181725023655896,0.6110365429667035,0.3098126418740827,0.09836479046824823,0.11491177507618212,0.20975817647575704
31.8,-67.93004374016468,18.56233397973813,295.2548298639261,303.5365968763766,0,7.87575248962879,218.38232166987942,11.026186292534017,19.841827662130868,0.009855762824742022,0.011491673941890254,0.8847008086453942,0.3574837670958232,-0.0488852123680758,-0.05755583772781683,2.829312979109537,2.225216418406845,9.38949321138687,0.0,0.20628180687191539,0.6479310977623556,-0.2928388428119029,0.6369384315753519,0.29789283152735513,-0.0488852123680758,-0.05755583772781683,2.829312979109537
32.0,-67.92806626894249,18.564631194502596,295.23276746644075,303.51483440569956,0,7.835579387809247,218.06571433346755,11.02619180813339,19.84109224888136,0.009887356110951408,0.011486073822322182,-0.11031198742671261,0.31100416209486387,0.00015796643104693033,-2.8000597840360895e-05,-4.975063980360552,2.6313131325326475,9.38949321138687,0.0,0.20628180687191539,0.6850728270929758,0.2739955878079407,-0.5973874893609844,0.314213028048804,0.00015796643104693033,-2.8000597840360895e-05,-4.975063980360552
32.1,-67.92608528257303,18.56692501863033,295.24977201221134,303.53107195100404,0,7.815789707880017,217.90486942364905,11.026187556996947,19.84165906707371,0.019809863694603965,0.022938241277330136,0.17004545770589388,0.25829031145784487,0.09922507583652417,0.11452167455007792,2.8035744513260252,2.6885214807610316,9.38949321138687,0.0,0.20628180687191539,0.6970962431264335,-0.2672111596702788,0.5838344345567608,0.31904917644849784,0.09922507583652417,0.11452167455007792,2.8035744513260252
32.2,-67.92409792469768,18.56921659156032,295.24392750582984,303.5250823453902,0,7.795785208116568,217.74233985920674,11.026189018123542,19.841464250194328,0.01987357875350398,0.022915729299910155,-0.058445063814928366,0.13836367830970492,0.0006371505890001481,-0.00022511977419980802,-2.28490521520819,2.4799071587246435,9.38949321138687,0.0,0.20628180687191539,0.7774390343082898,0.215625286705486,-0.4724180435754065,0.35484570699299184,0.0006371505890001481,-0.00022511977419980802,-2.28490521520819
32.41,-67.92210361908818,18.571506662784557,295.25544075400126,303.5359753218843,0,7.754066994823455,217.39557644805382,11.0261861398115,19.841848025133373,0.009496693378572674,0.010905101067798049,0.05482499129243642,0.2515020572630312,-0.04941373988062674,-0.057193467771964115,0.5393812147969913,2.2686415659833647,9.38949321138687,0.0,0.20628180687191539,0.7209814013551421,-0.25284567500455163,0.5554733766329408,0.32818319789938577,-0.04941373988062674,-0.057193467771964115,0.5393812147969913
32.6,-67.9201052096456,18.573793521849044,295.20133846553375,303.4830419139169,0,7.715751672871702,217.07552064172225,11.026199665383617,19.84004461551779,0.01051794443462083,0.012036100339404379,-0.2847488866710687,0.22309204115273631,0.005375005558148055,0.005952627745296322,-1.7872309366499812,3.0516640376065807,9.38949321138687,0.0,0.20628180687191539,0.6616167246469602,0.28408288746460625,-0.6255188499491373,0.30047693934062397,0.005375005558148055,0.005952627745296322,-1.7872309366499812
32.7,-67.91809985039953,18.576078638355003,295.1337027513293,303.4169433050455,0,7.6952274989805325,216.90467764296184,11.026216574312167,19.837790091710975,0.02005359246069787,0.022851165059591623,-0.6763571420446982,0.24589285191803367,0.09535648026076905,0.10815064720187091,-3.91608255373624,2.770467303843379,9.38949321138687,0.0,0.20628180687191539,0.6584308050857525,0.2850940671908044,-0.6294987984866586,0.29819710003718347,0.09535648026076905,0.10815064720187091,-3.91608255373624
32.8,-67.91609068550693,18.578360431959915,295.13329482437376,303.41623648749015,0,7.675401213701284,216.732194442381,11.026216676293906,19.837776494145793,0.02009164892598506,0.022817936049116715,-0.004079269555177466,0.2677407386347368,0.00038056465287191003,-0.00033229010474910225,6.72277872489559,3.005983666804302,9.38949321138687,0.0,0.20628180687191539,0.9092503305921196,0.027441800074494017,-0.06072677273495123,0.4108808136187311,0.00038056465287191003,-0.00033229010474910225,6.72277872489559
33.0,-67.91407546925133,18.580641662378678,295.0974534997271,303.3810622854573,0,7.635483146710776,216.38233817188154,11.026225636625067,19.836581783324235,0.010076081278000826,0.01140615209381563,-0.17920662323319647,0.24085510462787188,-0.05007783823992046,-0.05705891977650461,-0.8756367683900826,2.695095387491786,9.38949321138687,0.0,0.20628180687191539,0.6713241425234596,0.27809366407323477,-0.6167277916724319,0.30271214155747045,-0.05007783823992046,-0.05705891977650461,-0.8756367683900826
33.2,-67.91205566604167,18.582918949384695,295.1305014945133,303.4128953981189,0,7.596380165263412,216.02601402597276,11.026217374626372,19.837683383150445,0.010099016048314835,0.011386435030082803,0.1652399739307929,0.16294948937645087,0.00011467385157004465,-9.85853186641336e-05,1.7222329858199226,2.0516301339732905,9.38949321138687,0.0,0.20628180687191539,0.6738183833176402,-0.27640299383476186,0.6146071950147834,0.3030316272906877,0.00011467385157004465,-9.85853186641336e-05,1.7222329858199226
33.3,-67.9100302604115,18.585196382810974,295.14526712790916,303.42694416047254,0,7.576863344193286,215.8454462506239,11.026213683218023,19.838175570930304,0.02025405630163961,0.022774334262793034,0.14765633395882943,0.22167101872344785,0.10155040253325351,0.11387899232710878,-0.17583639971964465,0.7763400530044947,9.38949321138687,0.0,0.20628180687191539,0.7072902961538419,-0.2586689118745608,0.576208170624236,0.3175137400209835,0.10155040253325351,0.11387899232710878,-0.17583639971964465
33.5,-67.90799956701785,18.587468742551263,295.20268872113536,303.4824835598209,0,7.538222943864554,215.4795394208042,11.026199327819716,19.840089624037844,0.010153466968247782,0.011361798701443443,0.28710796613097095,0.3419942172261109,-0.05050294666695841,-0.05706267780674715,0.6972581608606977,3.0535421164737384,9.38949321138687,0.0,0.20628180687191539,0.6623174141318666,-0.28105712496129037,0.6280986306178141,0.29636910375779313,-0.05050294666695841,-0.05706267780674715,0.6972581608606977
33.61,-67.90596349064033,18.58974140856111,295.23822909744433,303.51673806204553,0,7.517079859648817,215.27559793865814,11.026190442725639,19.841274303248145,0.018509785250196163,0.02066060008952527,0.32309433008157035,0.4603484399651948,0.07596652983589476,0.0845345580734716,0.32714876318726893,4.247497205081276,9.38949321138687,0.0,0.20628180687191539,0.672661634876392,-0.27580044682719324,0.6173846413653947,0.300493998444999,0.07596652983589476,0.0845345580734716,0.32714876318726893
33.7,-67.9039221461802,18.592008020859026,295.1679631821102,303.4480711656572,0,7.498826588273335,215.10732521075317,11.026208009204472,19.83893210607034,0.022681605112652655,0.025184581087954894,-0.7807323926012898,0.5406880417620055,0.0463535540272926,0.05026645553810503,-12.264741363142427,5.510748374031756,-174165530279946.06,0.0,-154118572283.52774,0.6598507528953461,0.2812635188190589,-0.6318271264198955,0.29373848778282896,0.0463535540272926,0.05026645553810503,-12.264741363142427
33.9,-67.90187571865916,18.594275589527523,295.31947450241734,303.59513143526436,0,7.4614737364549,214.72886979090566,11.026170131374395,19.84398248341391,0.010232137605186372,0.011337843342485129,0.7575566015356278,0.7260224047085024,-0.06224733753733274,-0.0692336887273503,7.691444970684752,6.693906248849645,-87209040842697.36,0.0,-228397404712.91122,0.6526177570106834,-0.2843274043606952,0.6395936194264786,0.29011720451016215,-0.06224733753733274,-0.0692336887273503,7.691444970684752
34.1,-67.89982407321855,18.596536464714276,295.20902328764936,303.4873715792889,0,7.421697941132948,214.3442404412284,11.026197744178088,19.840300776254978,0.01025822720301036,0.011304375933764826,-0.5522560738398773,0.7852562076624899,0.00013044798911993917,-0.00016733704360151242,-6.549063376877432,8.458766904519587,-87209040842697.36,0.0,-228397404712.91122,0.6554022438920492,0.2823684059446007,-0.6375364939649664,0.2902812444654846,0.00013044798911993917,-0.00016733704360151242,-6.549063376877432
34.2,-67.89776846511838,18.598797866633166,295.08764336907757,303.3689824516386,0,7.401227093044527,214.14963186814148,11.02622808915773,19.836254778969252,0.02055608100178545,0.022614019188899836,-1.2137991857178858,1.13822819233126,0.10297853798774945,0.11309643255134849,-6.615431118779991,12.338669765451964,-87209040842697.36,0.0,-228397404712.91122,0.6547393397525545,0.28245597139169476,-0.6384620729104358,0.28965704317428975,0.10297853798774945,0.11309643255134849,-6.615431118779991
34.4,-67.89570768973617,18.601056795565423,295.2116960799496,303.489327553709,0,7.364120335968361,213.75587017127594,11.026197075980011,19.840389869331652,0.01030387691102441,0.011294644661284067,0.6202635543601919,1.0640926738361607,-0.051261020453806296,-0.056596872638080054,9.170313700390585,16.131502582719328,-87209040842697.36,0.0,-228397404712.91122,0.6548300627182035,-0.28195941962741145,0.6388884207017419,0.2889949143792687,-0.051261020453806296,-0.056596872638080054,9.170313700390585
34.5,-67.89364154256609,18.60330851186069,294.95708165547705,303.24133898301807,0,7.342487791137911,213.5567345479524,11.02626072958613,19.831902721849236,0.02066147170083325,0.02251716295265961,-2.5461442447254607,1.1982394885760175,0.10357594789808693,0.11222518291375384,-31.66407799085608,16.515554263599288,-87209040842697.36,0.0,-228397404712.91122,0.6511929754719677,0.28285123382392713,-0.6434239373682316,0.28626652798014884,0.10357594789808693,0.11222518291375384,-31.66407799085608
34.61,-67.89156975921784,18.605557335938144,294.9995453328247,303.2823169172989,0,7.321987578074132,213.33596313235807,11.026250113666794,19.833318177760823,0.018834394074929248,0.020443855249590737,0.3860334304332292,1.0004986851386704,-0.01660979659912738,-0.018848251846080768,26.656160683260957,18.085240028575022,-87209040842697.36,0.0,-228397404712.91122,0.6704567004363038,-0.2735316881377362,0.623914855496044,0.29393618612878414,-0.01660979659912738,-0.018848251846080768,26.656160683260957
34.8,-67.88949680541577,18.607805898287573,294.76715725109733,303.05595392721466,0,7.283701196069506,212.95041498136132,11.026308210687226,19.82557190836991,0.010910283168791118,0.011834538681205672,-1.2230951669862193,0.9705990203073291,-0.04170584687441171,-0.04531219246518509,-8.469097881155093,16.94538189373595,-2423788982287.345,0.0,54329280603.852,0.6518995501841833,0.2819338617727373,-0.6433768108394067,0.2856686075327226,-0.04170584687441171,-0.04531219246518509,-8.469097881155093
34.9,-67.88741556699776,18.610047929470465,294.78949675132793,303.0773539398888,0,7.265092411759639,212.74536750193124,11.026302625812168,19.8263165583776,0.020812384180146342,0.022420311828916475,0.2233950023060029,0.48719803032929115,0.09902101011355083,0.10585773147710653,14.464901692922018,10.954783490139766,-4847577964733.842,0.0,108658561207.80952,0.6907083154506742,-0.2628180829870046,0.6025700980025919,0.3012606101292942,0.09902101011355083,0.10585773147710653,14.464901692922018
35.1,-67.88533233991429,18.612290590121113,294.69535577646496,302.98545909685004,0,7.226693358820713,212.33091568811068,11.026326161055884,19.823178525882167,0.010416135417372482,0.011213303253238945,-0.4707048743148267,0.4324380641420313,-0.05198124381386856,-0.056035042878386856,-3.470499383104099,6.099397108563997,-4847577964733.842,0.0,108658561207.80952,0.6586346071948317,0.277955053449747,-0.6375675286227804,0.2871394938229472,-0.05198124381386856,-0.056035042878386856,-3.470499383104099
35.3,-67.88324496022737,18.614529040947694,294.6696729713604,302.9601488757143,0,7.189266982055608,211.91071624109645,11.02633258175716,19.822322432378677,0.010436898434562858,0.011192254132908159,-0.12841402552283218,0.2192320722852707,0.00010381508595188166,-0.00010524560165393066,1.7114542439600093,4.931887461222088,-4847577964733.842,0.0,108658561207.80952,0.6857543939283274,0.26475095288909256,-0.6088836202618758,0.29817542006191905,0.00010381508595188166,-0.00010524560165393066,1.7114542439600093
35.4,-67.88114953410955,18.61676046273336,294.6805746827561,302.9704198887382,0,7.170903910944101,211.69848445965792,11.02632985632931,19.822685822758537,0.020954261178189583,0.02231421785666012,0.10901711395717784,0.18940820467094407,0.10517362743626575,0.11121963723751802,2.3743113948000665,2.119574976722442,-4847577964733.842,0.0,108658561207.80952,0.7314250135158169,-0.23988444272950046,0.5543369048579213,0.31651777146360033,0.10517362743626575,0.11121963723751802,2.3743113948000665
35.5,-67.87904961784291,18.61898850633732,294.66515865927164,302.95509211385513,0,7.152355252020797,211.48484386190574,11.026333710335182,19.822171955309056,0.020999162666441563,0.022280436039600855,-0.15416023484476463,0.10276590302301829,0.0004490148825197984,-0.00033781817059263603,-2.631773488019387,1.4656191411873,-4847577964733.842,0.0,108658561207.80952,0.7096263553764377,0.2514635934110941,-0.5825519613883913,0.30631635481389524,0.0004490148825197984,-0.00033781817059263603,-2.631773488019387
35.7,-67.87694867781804,18.62121524269591,294.6501965513905,302.9402055632415,0,7.115656751971413,211.05337426006213,11.026337450862153,19.821673218379683,0.01050470012437173,0.011133681792951775,-0.07481053940580189,0.1732039860911553,-0.05247231271034842,-0.055733771233244606,0.39674847719480805,1.9349378661639807,-4847577964733.842,0.0,108658561207.80952,0.7113874730284719,0.2504225869975174,-0.5805680645537119,0.3068503113245821,-0.05247231271034842,-0.055733771233244606,0.39674847719480805
35.9,-67.87484281053295,18.623437622823715,294.6432969114474,302.9331595093101,0,7.079371203609039,210.61638414013626,11.026339175772138,19.82144323038158,0.010529336425406878,0.011111900639022803,-0.034498199715358904,0.20615733868985586,0.0001231815051757424,-0.00010890576964486347,0.20156169845221922,1.9144073012579086,-4847577964733.842,0.0,108658561207.80952,0.7701305426891659,0.21538222437198173,-0.5008097333525919,0.3312084775804717,0.0001231815051757424,-0.00010890576964486347,0.20156169845221922
