time,position_x,position_y,position_z,ground_station_distance,comm_range_status,wind_speed,wind_angle,battery_voltage,battery_current,velocity_x,velocity_y,velocity_z,velocity_total,acceleration_x,acceleration_y,acceleration_z,acceleration_total,angular_x,angular_y,angular_z,orientation_w,orientation_x,orientation_y,orientation_z,linear_acceleration_x,linear_acceleration_y,linear_acceleration_z
0.0,-67.15804004701788,33.811600630593276,269.3324017,279.6307731378107,0,7.693324017,180.0,11.032666899575,18.977746723333333,-2.8414919128749716e-05,-0.008320561612471522,0.012359152323995204,0.028315028377323092,-0.0013717338084973114,-0.08398559997893079,0.2606566705736669,0.23078252558931123,2623432398089341.5,0.0,-22185337113993.2,0.6231260438523867,0.3328067770368076,0.3316721745003052,-0.6252576679205822,-0.0013717338084973114,-0.08398559997893079,0.2606566705736669
0.2,-67.1580457300017,33.80993651827078,269.3348735304648,279.6329540903825,0,7.733346068691314,180.59998222238025,11.032666281617383,18.97782911768216,-2.8414919128749716e-05,-0.008320561612471522,0.012359152323995204,0.028315028377323092,-0.0013717338084973114,-0.08398559997893079,0.2606566705736669,0.23078252558931123,2623432398089341.5,0.0,-22185337113993.2,0.6231260438523867,0.3328067770368076,0.3316721745003052,-0.6252576679205822,-0.0013717338084973114,-0.08398559997893079,0.2606566705736669
0.3,-67.1580622888317,33.808264606109745,269.3387160124029,279.6364569030247,0,7.753378160529021,180.89994000119998,11.032665320996898,18.97795720041343,-0.00016558829997848082,-0.0167191216103646,0.03842481938136189,0.028315028377323092,-0.0013717338084973114,-0.08398559997893079,0.2606566705736669,0.23078252558931123,2623432398089341.5,0.0,-22185337113993.2,0.5884602445784554,0.3895366208797318,0.3856977054949094,-0.5943172902753435,-0.0013717338084973114,-0.08398559997893079,0.2606566705736669
0.5,-67.1580899931431,33.8065849709793,269.3430996973098,279.6404827514824,0,7.793389335514455,181.4997222376539,11.032664225075672,18.97810332324366,-0.00013852155696270074,-0.008398175652217788,0.0219184245344195,0.028315028377323092,0.00013533371507890038,0.041604729790734055,-0.08253197423471195,0.23078252558931123,2623432398089341.5,0.0,-22185337113993.2,0.5778063379188373,0.4039667512637475,0.3973585730440828,-0.5874154102188727,0.00013533371507890038,0.041604729790734055,-0.08253197423471195
0.6,-67.15812859232807,33.80489763991887,269.3474454367244,279.64447375866075,0,7.813402467326133,181.79952003839853,11.03266313864082,18.978248181224146,-0.00038599184975396394,-0.016873310604310635,0.043457394145889346,0.03542284281651517,-0.0024747029279126326,-0.0847513495209285,0.2153896961146985,0.23078252558931123,2623432398089341.5,0.0,-22185337113993.2,0.576818840007249,0.4039062247899151,0.39477218339508463,-0.5901649859201474,-0.0024747029279126326,-0.0847513495209285,0.2153896961146985
0.81,-67.15817833553567,33.80320270013737,269.35001968225174,279.64676027618054,0,7.855323107926513,182.42881919217493,11.032662495079437,18.97833398940839,-0.00023687241713062003,-0.00807114181667213,0.012258312034960212,0.028808374159063503,0.0007100925363016374,0.04191508946494525,-0.14856705767109105,0.22603388085187182,2623432398089341.5,0.0,-22185337113993.2,0.6133140289028842,0.34026071236858085,0.33042122119938383,-0.6315776802187091,0.0007100925363016374,0.04191508946494525,-0.14856705767109105
0.9,-67.1582389816718,33.80150010901238,269.35422728558433,279.6506217217354,0,7.873299371251866,182.698380291575,11.032661443178604,18.978474242852812,-0.0006738459570480398,-0.01891767916654254,0.04675114813987119,0.028264936503021733,-0.004855261554637999,-0.12051708166522682,0.383253734499011,0.24012107564017518,2623432398089341.5,0.0,-22185337113993.2,0.5758358871047314,0.402160542386444,0.38809066689146554,-0.5967122954502325,-0.004855261554637999,-0.12051708166522682,0.383253734499011
1.1,-67.15831075939931,33.79978997408932,269.3537903985242,279.65001145789483,0,7.913094505659592,183.29704301743396,11.032661552400368,18.97845967995081,-0.0003588886375638366,-0.008550674615293016,-0.0021844353005917574,0.023788802717262157,0.0015747865974210158,0.05183502275624761,-0.24467791720231466,0.20778308888364333,2717264808709080.0,0.0,-11117486669014.459,0.6867254973491129,-0.08995512120346345,-0.08625872745186917,-0.7161533351163478,0.0015747865974210158,0.05183502275624761,-0.24467791720231466
1.2,-67.15839354713805,33.798072303080666,269.35495257300516,279.65094312525105,0,7.93297394030789,183.59616122861277,11.032661261856749,18.97849841910017,-0.0008278773873371403,-0.017176710086559435,0.01162174480953128,0.024787903411920685,-0.004689887497733043,-0.0862603547126643,0.13806180110123056,0.2088602818777816,2717264808709080.0,0.0,-11117486669014.459,0.6596413125738574,0.21196638258135864,0.20199615479218533,-0.69220022020394,-0.004689887497733043,-0.0862603547126643,0.13806180110123056
1.4,-67.15848725306476,33.796347103865024,269.359482061114,279.6551198600101,0,7.972681049899613,184.19390487759242,11.032660129484722,18.978649402037135,-0.00046852963357935107,-0.008625996078208688,0.022647440544290024,0.017262290438005676,0.0017967387687889465,0.042753570041753744,0.05512847867379373,0.13714285645902968,2717264808709080.0,0.0,-11117486669014.459,0.5663104641242311,0.41185884550025265,0.3900954103512041,-0.5979049426368063,0.0017967387687889465,0.042753570041753744,0.05512847867379373
1.5,-67.15859211511332,33.79461447448639,269.3604082151129,279.6558277171702,0,7.992480347098327,184.49250374910727,11.032659897946221,18.978680273837096,-0.0010486204855908446,-0.017326293786368283,0.009261539988756331,0.023800165201783734,-0.00580090852011493,-0.08700297708159586,-0.1338590055553368,0.14631799105041304,2717264808709080.0,0.0,-11117486669014.459,0.6649359434669052,0.17666529533259726,0.16629643139350375,-0.7063958248861671,-0.00580090852011493,-0.08700297708159586,-0.1338590055553368
1.7,-67.15870797097459,33.79287441315324,269.3622850874611,279.65745304742455,0,8.031987549008603,185.08908923171782,11.032659428728135,18.978742836248703,-0.0005792793063363889,-0.008700306665723192,0.00938436174095614,0.022184865155896454,0.0023467058962722788,0.043129935603225464,0.0006141087609990403,0.14356663237845904,2717264808709080.0,0.0,-11117486669014.459,0.6263041070958174,0.2917752628077514,0.2729944519387168,-0.6693910595900264,0.0023467058962722788,0.043129935603225464,0.0006141087609990403
1.8,-67.1588347180966,33.79112694823775,269.3660495308367,279.6608981981101,0,8.051719642160014,185.38704932800138,11.03265848761729,18.978868317694555,-0.0012674712201032879,-0.017474649154891594,0.03764443375587231,0.025718130618255487,-0.006881919137668983,-0.08774342489168395,0.28260072014916143,0.19001034359814006,2717264808709080.0,0.0,-11117486669014.459,0.5742585388348052,0.3936552675407849,0.36613679475668076,-0.6174192323195089,-0.006881919137668983,-0.08774342489168395,0.28260072014916143
2.0,-67.15897256368454,33.7893721582749,269.3678748981585,279.6624774506049,0,8.091017410571707,185.98223801800413,11.03265803127546,18.97892916327195,-0.0006892279397163749,-0.008773949814262496,0.009126836609141266,0.024293903156565693,0.0028912164019345658,0.0435034967031455,-0.14258798573365525,0.18848196443635684,2717264808709080.0,0.0,-11117486669014.459,0.624793391816485,0.2871467569167323,0.26547484828577733,-0.6757980929703034,0.0028912164019345658,0.0435034967031455,-0.14258798573365525
2.1,-67.15912132470089,33.78761005196164,269.3716740426079,279.66595957793345,0,8.110636540118279,186.27944015899064,11.032657081489347,18.979055801420262,-0.0014876101634797565,-0.017621063132580144,0.03799144449374122,0.030169124423003447,-0.00798382223763381,-0.08847113318317641,0.2886460788459993,0.2412289170962172,2717264808709080.0,0.0,-11117486669014.459,0.5706070304450034,0.39580045980572515,0.3637940406443431,-0.6208087538171265,-0.00798382223763381,-0.08847113318317641,0.2886460788459993
2.3,-67.15928118786537,33.785840678156056,269.37344801765045,279.66749288560214,0,8.149689527246881,186.87299398884537,11.032656637995586,18.979114933921682,-0.0007993158224195451,-0.008846869027934202,0.008869875212838009,0.024140028278757424,0.0034414717053010617,0.04387097052322977,-0.14560784640451624,0.21259002937714055,2717264808709080.0,0.0,-11117486669014.459,0.6232911154638224,0.28226022477017637,0.2579076992910988,-0.6821443905383417,0.0034414717053010617,0.04387097052322977,-0.14560784640451624
2.4,-67.15945195965512,33.78406406587648,269.3772704770579,279.67100103871775,0,8.169177957624848,187.16931929764107,11.032655682380735,18.979242349235264,-0.0017077178974034253,-0.017766122795777033,0.038224594074449635,0.026005665356006413,-0.009084020749838793,-0.08919253767842823,0.293547188616116,0.20852877321988988,2717264808709080.0,0.0,-11117486669014.459,0.5672115565452212,0.39753085608936295,0.36115160017492637,-0.6243474916018288,-0.009084020749838793,-0.08919253767842823,0.293547188616116
2.61,-67.15963378630472,33.782280264300645,269.37884927492956,279.6723499147736,0,8.209882119087215,187.79054958741378,11.032655287681267,18.97929497583099,-0.0008658411886131035,-0.008494293218251956,0.007518085103204917,0.022832789559686973,0.004008936708525343,0.044151569416786086,-0.14622147129164154,0.16692582271452938,2717264808709080.0,0.0,-11117486669014.459,0.6270981060592653,0.26209533364763027,0.23673749144402487,-0.6942689403983229,0.004008936708525343,0.044151569416786086,-0.14622147129164154
2.7,-67.15982660380634,33.780489322764836,269.37967286571427,279.6729731696969,0,8.227259602034804,188.0563308041621,11.03265508178357,18.97932242885714,-0.0021424166845918006,-0.019899350397878313,0.009151008718946358,0.025786202890800514,-0.014184172177541032,-0.12672285755140353,0.018143595730460396,0.15646030697395363,-2.4761814365398083,0.0,0.22306765999691153,0.6528882301126645,0.1583082770151494,0.14217924087202674,-0.7269528952235498,-0.014184172177541032,-0.12672285755140353,0.018143595730460396
2.9,-67.1600303579097,33.778691260763004,269.38455660423193,279.6775089238031,0,8.26575001625199,188.64590342175129,11.032653860848942,18.979485220141065,-0.0010187705168362995,-0.008990310009160408,0.024418692588312783,0.0203113458173852,0.005618230838777514,0.0545452019435896,0.07633841934683222,0.10714122215095145,3.5971441832538673,0.0,-0.22719463494659067,0.5467462509902922,0.42603717848628464,0.38048586119918093,-0.6122020655004553,0.005618230838777514,0.0545452019435896,0.07633841934683222
3.0,-67.16024514412233,33.77688613794589,269.3865960456952,279.6793068750009,0,8.28490637377963,188.94011988577776,11.032653350988577,18.979553201523174,-0.002147862126236076,-0.0180512281711742,0.020394414632960416,0.027892631364964383,-0.011290916093997754,-0.09060918162013783,-0.04024277955352363,0.1541270516538824,22.379052877215337,0.0,-0.21601843985613414,0.6059327156940227,0.305837323711345,0.2716040473566933,-0.6823051494281804,-0.011290916093997754,-0.09060918162013783,-0.04024277955352363
3.21,-67.16047089770953,33.77507399412016,269.38911404573116,279.68156757436543,0,8.324922417642766,189.55666554280648,11.032652721488567,18.979637134857704,-0.0010750170819137784,-0.008629256312971059,0.011990476361591262,0.02830545601639446,0.005108785925344274,0.0448665326581102,-0.040018753673186455,0.15360560455102323,10.140135098575794,0.0,0.22610956322665743,0.5896807705822722,0.34056941849936107,0.3007744954856719,-0.6677003540914473,0.005108785925344274,0.0448665326581102,-0.040018753673186455
3.3,-67.16070756369452,33.77325483924754,269.39315236040255,279.6852944320954,0,8.342017580393762,189.82033303863912,11.0326517119099,18.979771745346753,-0.0026296220553945248,-0.020212831918008288,0.04487016301545238,0.032590945365099634,-0.01727338859423054,-0.12870639561152497,0.36532985170956855,0.1816050129559619,5376709134513.741,0.0,-4811919291315.799,0.5548035384883031,0.4068343512785459,0.35733497727819535,-0.6316569941940122,-0.01727338859423054,-0.12870639561152497,0.36532985170956855
3.5,-67.1609552468586,33.77142872344392,269.39759994622955,279.68941732658016,0,8.379771614373198,190.40498125354344,11.032650600013442,18.97991999820765,-0.0012384158204525864,-0.009130579018119525,0.02223792913497389,0.03212927572999667,0.006956031174709686,0.055411264499443766,-0.11316116940239235,0.18411513206862837,5376709134513.741,0.0,-4811919291315.799,0.5470229062371611,0.41838022557991283,0.36546453178107613,-0.6262264789240312,0.006956031174709686,0.055411264499443766,-0.11316116940239235
3.6,-67.1612138317412,33.769595706978464,269.4019709602113,279.69346827341565,0,8.398568176152292,190.69661818922106,11.032649507259947,18.980065698673712,-0.0025858488258734247,-0.01833016465454305,0.04371013981767642,0.038946821250027186,-0.013474330054208372,-0.09199585636423518,0.21472210682702514,0.2198296337564163,5376709134513.741,0.0,-4811919291315.799,0.5467666771661546,0.41690367340138057,0.3622187385169466,-0.6293132076417187,-0.013474330054208372,-0.09199585636423518,0.21472210682702514
3.8,-67.16148343263998,33.76775582027273,269.4066148598472,279.69778390300553,0,8.435907087424438,191.2784529096354,11.032648346285038,18.98022049532824,-0.0013480044939484532,-0.009199433528657165,0.023219498179400975,0.034257659122558244,0.006189221659624866,0.045653655629429496,-0.10245320819137738,0.1642886033173485,5376709134513.741,0.0,-4811919291315.799,0.5414917396148119,0.4240747112739874,0.3664630746186988,-0.6266196215630492,0.006189221659624866,0.045653655629429496,-0.10245320819137738
3.9,-67.16176393361113,33.76590910389979,269.4111340031583,279.70198118203353,0,8.454488170277905,191.56862483514698,11.03264721649921,18.98037113343861,-0.002805009711437376,-0.01846716372945421,0.04519143311085823,0.038202485129588,-0.014570052174889214,-0.09267730200797038,0.21971934931457235,0.18041006039088628,5376709134513.741,0.0,-4811919291315.799,0.5418612406043768,0.4215507967022317,0.3623558028816883,-0.630380515124291,-0.014570052174889214,-0.09267730200797038,0.21971934931457235
4.11,-67.1620554384692,33.7640555985833,269.4162250487086,279.7067311679872,0,8.493214749186563,192.17629692654444,11.032645943737823,18.980540834956955,-0.0013881183717568888,-0.008826215792807818,0.024243074049189996,0.0356162793914374,0.0067471016175261155,0.045909275888792254,-0.09975409076984854,0.14623190648351425,5376709134513.741,0.0,-4811919291315.799,0.5330855608695256,0.43469172016349794,0.37166991004882843,-0.6234776428854673,0.0067471016175261155,0.045909275888792254,-0.09975409076984854
4.2,-67.16235786078751,33.762195345196645,269.41968685562665,279.70991368439485,0,8.509717774675407,192.43600418538512,11.032645078286093,18.98065622852089,-0.0033602479812581557,-0.020669482073919408,0.03846452131155179,0.03909463442893957,-0.021912551216680776,-0.13159184756790676,0.1580160806929091,0.14504036756944388,5376709134513.741,0.0,-4811919291315.799,0.5569922683241356,0.389097159790704,0.33094966640117096,-0.654855198940113,-0.021912551216680776,-0.13159184756790676,0.1580160806929091
4.4,-67.16267118389817,33.760328404762014,269.4263298836264,279.7161622236271,0,8.546142228968263,193.01151495687571,11.032643417529092,18.980877662787545,-0.0015666155533011748,-0.009334702173156009,0.03321513999878786,0.035710587890586315,0.008968162139784897,0.056673899503816946,-0.026246906563819627,0.10926164247778825,5376709134513.741,0.0,-4811919291315.799,0.5155543683599244,0.45991711100493904,0.38916259555632815,-0.6092884526147954,0.008968162139784897,0.056673899503816946,-0.026246906563819627
4.5,-67.16299544089225,33.7584547484495,269.4301199930287,279.7196646341731,0,8.564232268152749,193.2984092997603,11.032642470001742,18.981003999767623,-0.0032425699407667825,-0.01873656312511691,0.03790109402302746,0.04074684217952766,-0.016759543874656137,-0.09401860951960936,0.04685954024239612,0.1259111059693398,5376709134513.741,0.0,-4811919291315.799,0.5480499742302695,0.4017544354092678,0.33819829254196404,-0.6510426363126163,-0.016759543874656137,-0.09401860951960936,0.04685954024239612
4.7,-67.16333061461992,33.75657448757619,269.43622404478214,279.7253977169289,0,8.600134811205958,193.87041214631236,11.032640943988804,18.981207468159404,-0.0016758686383866446,-0.00940130436656971,0.030520258767126024,0.03904537645461262,0.007833506511900682,0.04667629379273597,-0.036904176279507137,0.1009465729117371,5376709134513.741,0.0,-4811919291315.799,0.5173773476856173,0.45400256541733275,0.38022930591246346,-0.6177604921177806,0.007833506511900682,0.04667629379273597,-0.036904176279507137
4.8,-67.16367667769057,33.75468765360525,269.4409515004844,279.7298066866386,0,8.61796786608781,194.1554952277253,11.032639762124878,18.981365050016148,-0.003460630706513269,-0.01886833970935704,0.04727455702266087,0.04235741547126266,-0.01784762068126631,-0.09467035342787364,0.16754298255534902,0.12134233567813864,5376709134513.741,0.0,-4811919291315.799,0.5309830269616481,0.429117103441904,0.3575708350046662,-0.6372273021193785,-0.01784762068126631,-0.09467035342787364,0.16754298255534902
5.0,-67.16403366247312,33.752794268145024,269.44774102240336,279.7362037363017,0,8.65332848743244,194.72376135582684,11.032638064744399,18.981591367413447,-0.0017849239127087897,-0.009466927301140507,0.033947609594804334,0.04182532909930648,0.008378533969022389,0.047007062041082626,-0.06663473713928261,0.11308430237374786,5376709134513.741,0.0,-4811919291315.799,0.5092008583446462,0.46413763059329116,0.3848053364201534,-0.6141788003431036,0.008378533969022389,0.047007062041082626,-0.06663473713928261
5.1,-67.16440151109597,33.750894392948105,269.45247017349755,279.7406180469101,0,8.67087919550079,195.00691914633666,11.032636882456625,18.981749005783254,-0.0036784862285799266,-0.018998751969192606,0.04729151094181833,0.04568445853039922,-0.018935623158711435,-0.09531824668052133,0.1334390134701404,0.12753036303920667,5376709134513.741,0.0,-4811919291315.799,0.5283562310874711,0.4299360751999018,0.35467753517788864,-0.6404674155278197,-0.018935623158711435,-0.09531824668052133,0.1334390134701404
5.3,-67.16478028544739,33.748988039910415,269.4601775174376,279.74790289158454,0,8.70566845758407,195.57122125711322,11.03263495562064,18.982005917247918,-0.0018938717570904356,-0.009531765188448551,0.03853671970034608,0.04401405863680428,0.008923072357447447,0.04733493390372023,-0.04377395620736121,0.10003082683471073,5376709134513.741,0.0,-4811919291315.799,0.5004968691254871,0.47505421541486464,0.38995174411075145,-0.609724539179075,0.008923072357447447,0.04733493390372023,-0.04377395620736121
5.4,-67.16516990717555,33.74707530107029,269.46491891862695,279.75233272996684,0,8.722921172492494,195.85234049737906,11.032633770270342,18.982163963954232,-0.00389621728160703,-0.019127388401258726,0.047414011893351676,0.05465621801800976,-0.020023455245165835,-0.09595623212810124,0.08877292193005552,0.18556376653099022,5376709134513.741,0.0,-4811919291315.799,0.5256210007029967,0.4309631351909703,0.3520267679432459,-0.6434830956425989,-0.020023455245165835,-0.09595623212810124,0.08877292193005552
5.61,-67.16557041768873,33.74515615860754,269.4736617422226,279.7606187197621,0,8.758802992017447,196.44038273173368,11.032631584564443,18.98245539140742,-0.0019071929198757759,-0.009138773632126156,0.04163249331256902,0.05154904665056027,0.00947154457967264,0.04756483223396463,-0.027531040860869802,0.20551600056094715,481519739593.30975,0.0,2183857004417.1,0.4923958745889522,0.4849703391747882,0.39420899149144367,-0.6057634388404196,0.00947154457967264,0.04756483223396463,-0.027531040860869802
5.7,-67.16598176815556,33.74323071484255,269.4813794541554,279.7679191731421,0,8.774077892009492,196.69142112358423,11.03262965513646,18.982712648471846,-0.0045705607425993115,-0.021393819611069585,0.08575235480887197,0.062456004836863435,-0.029592975808039334,-0.1361671775438161,0.4902206832922558,0.3102063388229618,481519739593.30975,0.0,2183857004417.1,0.4966453112272913,0.4769913324047616,0.38585114546255894,-0.6139556964406376,-0.029592975808039334,-0.1361671775438161,0.4902206832922558
5.9,-67.16640398950521,33.74129897223526,269.48821142115156,279.7743683331024,0,8.807604160037084,197.24711973558604,11.032627947144713,18.982940380705053,-0.0021111067482593154,-0.009658713036415625,0.034159834980869136,0.06530195293314987,0.01229726997169997,0.05867553287326975,-0.25796259914001396,0.3129064850346187,481519739593.30975,0.0,2183857004417.1,0.5012788301480678,0.46801422122899944,0.37676904986338133,-0.6226775298963682,0.01229726997169997,0.05867553287326975,-0.25796259914001396
6.0,-67.16683702242754,33.73936097338438,269.4974277107527,279.78311603311954,0,8.824259223897597,197.52382540388928,11.032625643072311,18.983247590358424,-0.004330329223307687,-0.019379988508845328,0.09216289601113237,0.06705941689858116,-0.0221922247504838,-0.09721275472429737,0.5800306103026344,0.341851026497377,481519739593.30975,0.0,2183857004417.1,0.4864755405134553,0.4902813420813526,0.3928212975423313,-0.6071714603686577,-0.0221922247504838,-0.09721275472429737,0.5800306103026344
6.2,-67.16728087737333,33.73741678102628,269.5103759913361,279.7954604322736,0,8.85717408098797,198.07488797572614,11.032622406002165,18.983679199711204,-0.0022192747289295745,-0.009720961790478091,0.06474140291714997,0.06400297126589123,0.010555272471890555,0.04829513359183614,-0.13710746546991187,0.26695554501119945,481519739593.30975,0.0,2183857004417.1,0.4732251457136785,0.5090365016307108,0.4059215426158818,-0.5934370250600969,0.010555272471890555,0.04829513359183614,-0.13710746546991187
6.3,-67.1677355745545,33.73546642803419,269.51511563213575,279.79989984189376,0,8.873440672205897,198.34922038768065,11.032621221091965,18.98383718773786,-0.004546971811691963,-0.01950352992096789,0.04739640799641637,0.06716019214534744,-0.02327697082762397,-0.09782568130489834,-0.17344994920733664,0.2685251894431381,481519739593.30975,0.0,2183857004417.1,0.5181210341797765,0.4328573708725542,0.3435505652805827,-0.6528078580387731,-0.02327697082762397,-0.09782568130489834,-0.17344994920733664
6.5,-67.1682010739443,33.73350993741715,269.5296202032623,279.81374715178396,0,8.905669013504703,198.89542650167127,11.032617594949183,18.984320673442078,-0.002327496949021677,-0.009782453085165335,0.07252285563282605,0.064059306831865,0.011097374313351421,0.04860538417901274,0.1256322381820483,0.18332051277080563,481519739593.30975,0.0,2183857004417.1,0.46746276314067303,0.51534840429297,0.4071195746088773,-0.5917332500712322,0.011097374313351421,0.04860538417901274,0.1256322381820483
6.6,-67.1686773852776,33.73154738231913,269.5343411757234,279.8181723611324,0,8.921577115704102,199.16727592796997,11.03261641470607,18.98447803919078,-0.004763113333012842,-0.019625550980251275,0.0472097246108662,0.06123759438018318,-0.02435616383991174,-0.09843097895085974,-0.25313131021959945,0.21931993366482777,481519739593.30975,0.0,2183857004417.1,0.5159187494722722,0.4329515572507497,0.34044304653072693,-0.6561092325870707,-0.02435616383991174,-0.09843097895085974,-0.25313131021959945
6.8,-67.16916444805102,33.72957880601805,269.5499648214441,279.8331014628585,0,8.953085696251378,199.70840710895135,11.032612508794639,18.98499882738147,-0.002435313867081843,-0.009842881505406345,0.0781182286036141,0.06833442175666835,0.011638997329654985,0.048913347374224606,0.15454251996373938,0.21965839418845556,481519739593.30975,0.0,2183857004417.1,0.4630408490561343,0.5197455941060123,0.40682287109811793,-0.591568120392104,0.011638997329654985,0.048913347374224606,0.15454251996373938
6.9,-67.1696623315232,33.727604241924816,269.5546838132865,279.8375285613272,0,8.9686212025768,199.9776648134484,11.032611329046677,18.98515612710955,-0.004978834721782705,-0.019745640932313686,0.04718991842366879,0.08751489528908306,-0.025435208547008488,-0.09902759426907289,-0.30928310179945145,0.35699081393077653,481519739593.30975,0.0,2183857004417.1,0.5135275576472185,0.4334208179240897,0.33770029104005017,-0.6590860001231714,-0.025435208547008488,-0.09902759426907289,-0.30928310179945145
7.1,-67.17017098471511,33.7256237235824,269.57195072507045,279.85404442919946,0,8.999387049293778,200.51350461616315,11.032607012318731,18.985731690835685,-0.0025432659595736686,-0.009902591712069898,0.08633455891981642,0.08449432913189922,0.012177843811045226,0.049215246101219114,0.19572320248073885,0.43596544881437466,481519739593.30975,0.0,2183857004417.1,0.458146210029688,0.5248572436036839,0.40709263677563046,-0.5906797009845869,0.012177843811045226,0.049215246101219114,0.19572320248073885
7.2,-67.17069034641014,33.72363731466484,269.5887375315929,279.8700997949271,0,9.014656719258877,200.78006289936673,11.032602815617102,18.986291251053096,-0.005193616950265295,-0.019864089175598457,0.16786806522475128,0.10563925050434204,-0.026503509906916124,-0.09961497463528506,0.8153350630493442,0.7013579589052286,481519739593.30975,0.0,2183857004417.1,0.45764074875140776,0.5246046400329327,0.40507738497748824,-0.5926780145390647,-0.026503509906916124,-0.09961497463528506,0.8153350630493442
7.4,-67.17122052515451,33.7216450489763,269.5956872086481,279.87668136726097,0,9.04453269534277,201.31039699503822,11.032601078197837,18.98652290695494,-0.0026508937218494544,-0.00996132844271357,0.034748385275804566,0.11595189415763321,0.012713616142079193,0.049513803664424386,-0.665598399744733,0.7138939979570842,481519739593.30975,0.0,2183857004417.1,0.48838810040869635,0.47424471042103933,0.36454497439920514,-0.6353550028583489,0.012713616142079193,0.049513803664424386,-0.665598399744733
7.5,-67.17176137925739,33.71964696045009,269.6140205330471,279.89423035483173,0,9.05941772537714,201.57414923718915,11.032596494866738,18.987134017768238,-0.005408541028799637,-0.01998088526207205,0.18333324399009207,0.11006400463495261,-0.027576473069501926,-0.10019556819358513,1.4858485871428804,0.7881393880317643,40482101280427.71,0.0,17476787081.231964,0.4532103158943992,0.529096370842283,0.4049185486473512,-0.5921979473873131,-0.027576473069501926,-0.10019556819358513,1.4858485871428804
7.71,-67.17231296679125,33.717643113147716,269.63554188263794,279.9148522904027,0,9.09006102104583,202.1248939586155,11.03259111452934,18.987851396087933,-0.0026266073041099286,-0.009542130011314364,0.1024826170992453,0.09925072036760292,0.013247303450903377,0.049708358336941365,-0.3850029851945085,0.6870232187631067,2087883819698.9922,0.0,-1940603937065.233,0.44867058488350786,0.5347327907408082,0.40742856554077383,-0.5888611999004736,0.013247303450903377,0.049708358336941365,-0.3850029851945085
7.8,-67.17287529559208,33.71563354125788,269.6402773363248,279.9193067342367,0,9.10296161176407,202.35960620296817,11.03258993066592,18.98800924454416,-0.006248097786946507,-0.022328576553734273,0.052616152076249596,0.10136779025502793,-0.040238783142628715,-0.14207162824911032,-0.554071833588842,0.6850480945730283,-5.415567952015687,0.0,-0.24924549171948626,0.5062390164306001,0.4351887416276341,0.3301290011942682,-0.667343734498504,-0.040238783142628715,-0.14207162824911032,-0.554071833588842
8.0,-67.17344829325967,33.713618269095534,269.6631922740874,279.9412750557748,0,9.13134410453992,202.87829479190856,11.032584201931478,18.988773075802914,-0.002864988337947236,-0.010076360811730458,0.11457468881303602,0.08995335077554614,0.016915547244996342,0.06126107871001902,0.30979268368393187,0.4761756377102947,-5.415567952015687,0.0,-0.24924549171948626,0.4451579498985085,0.5379438849631393,0.40631328769562053,-0.589372792479342,0.016915547244996342,0.06126107871001902,0.30979268368393187
8.11,-67.17403201715784,33.71159738110089,269.667894577001,279.94570141550685,0,9.146631566859252,203.16184574156526,11.03258302635575,18.988929819233366,-0.005306580892491583,-0.01837170904224204,0.04274820830532526,0.0787397873542239,-0.02219629595040327,-0.07541225664101477,-0.6529680046155557,0.5522864385463147,-5.415567952015687,0.0,-0.24924549171948626,0.5043620935148125,0.43469698986786043,0.3269073264495974,-0.6706631088249547,-0.02219629595040327,-0.07541225664101477,-0.6529680046155557
8.3,-67.17462636441482,33.70957090183844,269.6920132272551,279.96883325855174,0,9.172782874492476,203.64867307169013,11.032576996693185,18.989733774241838,-0.0031281434577803318,-0.01066568032867028,0.12694026449516405,0.09399797154240243,0.01146546018269072,0.040558045860903724,0.4431160852096748,0.5333216269367852,-5.415567952015687,0.0,-0.24924549171948626,0.44193953352244997,0.5407541869670799,0.4049340155396591,-0.5901718402689667,0.01146546018269072,0.040558045860903724,0.4431160852096748
8.41,-67.17523142192343,33.70753887599598,269.69671540817285,279.9732633585263,0,9.187587574809584,203.92879124602558,11.032575821147956,18.98989051360576,-0.005500522805525869,-0.018472962204185803,0.04274709925249993,0.1179495067176545,-0.021567084979504995,-0.0709752897774142,-0.7653924112969506,0.6721312791361101,-5.415567952015687,0.0,-0.24924549171948626,0.5020862582356426,0.4350378092803123,0.32437666410938704,-0.6733730567588697,-0.021567084979504995,-0.0709752897774142,-0.7653924112969506
8.6,-67.1758470463414,33.7055013383836,269.72204610423046,279.9975667778523,0,9.212905586832859,204.40959219755445,11.032569488473943,18.990734870141015,-0.003240128515657449,-0.010723882170425827,0.13331945293478084,0.11589200840849098,0.011896812051939083,0.04078463175663156,0.47669659832779554,0.7397817576160138,-5.415567952015687,0.0,-0.24924549171948626,0.43883017506636973,0.5434326135360966,0.40350230669101805,-0.5910118107885616,0.011896812051939083,0.04078463175663156,0.47669659832779554
8.7,-67.17647332409175,33.70345834393273,269.74542970107586,280.019996638136,0,9.226112171061768,204.6610771556343,11.03256364257473,18.991514323369195,-0.00626277750342299,-0.020429944508677595,0.23383596845406002,0.1312462619817309,-0.030226489877655513,-0.09706062338251803,1.0051651551927954,0.9318058260025188,394714838467.93115,0.0,-915374188977.3254,0.4391024290292262,0.5420823108545223,0.40080609628726743,-0.5938773427722397,-0.030226489877655513,-0.09706062338251803,1.0051651551927954
8.9,-67.1771102813629,33.701409937695146,269.7524163855476,280.0266332393846,0,9.251667658909124,205.16074781199663,11.032561895903612,18.991747212851585,-0.0031847863557743325,-0.010242031187921387,0.034933422358562706,0.15252232775109387,0.015389955738243203,0.05093956660378077,-0.9945127304774813,0.8346250046917907,9.56353289688035,0.0,-0.08224395060698271,0.4768204330900049,0.47860873595882364,0.35238898494952114,-0.6476094160356252,0.015389955738243203,0.05093956660378077,-0.9945127304774813
9.02,-67.1777577841092,33.69935617484193,269.77682524569383,280.05005478868406,0,9.266905376620768,205.45840883930293,11.032555793688577,18.992560841523126,-0.005395856219199911,-0.01711469044346133,0.2034071678854364,0.13600186450420965,-0.018425582195213272,-0.05727216046283322,1.4039478793906233,0.9526699837619592,3.6491210550244717,0.0,0.15981675776742463,0.43611075840701025,0.5446054000173575,0.39932976667848114,-0.5947672671878524,-0.018425582195213272,-0.05727216046283322,1.4039478793906233
9.2,-67.17841586805106,33.69729708066254,269.8043293707909,280.07646016098084,0,9.289246533780641,205.90183946278617,11.032548917657302,18.99347764569303,-0.003656021899208408,-0.011439412107744986,0.15280069498386561,0.11758536379110936,0.009665746222175031,0.031529324087313064,-0.28114707167539366,0.8471701512011895,-51172017009.20988,0.0,-869311897716.4521,0.4330333800536959,0.548229426193693,0.4003343429277913,-0.5930084332344514,0.009665746222175031,0.031529324087313064,-0.28114707167539366
9.3,-67.17908457867534,33.69523272056375,269.8089653513622,280.0808381465864,0,9.301329535281177,206.14658222417873,11.03254775866216,18.99363217837874,-0.0066871062428218876,-0.02064360098785271,0.046359805712653974,0.1205819244460283,-0.030310843436134365,-0.09204188880107594,-1.0644088927121014,0.8405477849014412,58223775104.609764,0.0,-6189830397.258496,0.49626666612572706,0.4340495563386311,0.31565211793738207,-0.6824105210035516,-0.030310843436134365,-0.09204188880107594,-1.0644088927121014
9.5,-67.1797638112357,33.69316313006872,269.83742767919597,280.10817068405584,0,9.325205286370707,206.63257072314389,11.0325406430802,18.994580922639866,-0.003396162801792014,-0.010347952475164882,0.1423116391688955,0.10814320691655346,0.016454717205149426,0.05147824256343933,0.4797591672812094,0.6550456326507235,58223775104.52922,0.0,-6189830397.023674,0.4303137325174604,0.550393266265788,0.3986404082266052,-0.5941238667021336,0.016454717205149426,0.05147824256343933,0.4797591672812094
9.6,-67.18045364075284,33.69108835481591,269.84209334736454,280.112581166925,0,9.336804070075642,206.87379486130766,11.032539476663159,18.99473644491215,-0.006898295171424731,-0.020747752528080882,0.04665668168570408,0.08684004001533778,-0.03502132369632729,-0.10399800052916038,-0.9565495748319176,0.7797769113391466,-88030865767.52817,0.0,-855854498750.617,0.4936998525788824,0.43510937744069145,0.31386192789052736,-0.6844201746351469,-0.03502132369632729,-0.10399800052916038,-0.9565495748319176
9.8,-67.18115397201493,33.68900843055814,269.87040915024176,280.1397766704412,0,9.359698832486359,207.35264931030852,11.032532397712439,18.995680305008058,-0.0035016563104050915,-0.010399621288854577,0.14157901438608103,0.10474359901593688,0.016983194305098107,0.05174065619613125,0.4746116635018822,0.6644439051355477,-88030865761.21512,0.0,-855854498750.8466,0.4282258698125755,0.5516277221968046,0.3963198182371825,-0.5960369637863702,0.016983194305098107,0.05174065619613125,0.4746116635018822
9.91,-67.18186485957786,33.68692342316154,269.87505668352196,280.1441735886412,0,9.371899067548618,207.61395197282562,11.032531235829119,18.995835222784066,-0.006462614208466957,-0.018954612696378898,0.042250302547328054,0.12650100399198033,-0.02691779907328982,-0.07777264915931241,-0.9029882894432135,0.7895352832893111,-36858848757.38647,0.0,13457398965.45354,0.4917771141249395,0.4347934979726537,0.3111271271609254,-0.6872479864563006,-0.02691779907328982,-0.07777264915931241,-0.9029882894432135
10.11,-67.18258620776561,33.68483336860455,269.90311064423724,280.17112096729363,0,9.393757670112091,208.08523338561238,11.03252422233894,18.996770354807907,-0.003606740938764132,-0.010450272784936524,0.14026980357641655,0.1238319786874142,0.014279366348514172,0.04252169955721202,0.4900975051454442,0.8227107585396265,-326359504739.36145,0.0,-1682512500749.7715,0.4262297853981485,0.5527309230613787,0.39395880843056547,-0.5980076537897601,0.014279366348514172,0.04252169955721202,0.4900975051454442
10.21,-67.18331798067065,33.68273831297693,269.92816403077563,280.19517985179135,0,9.404543563826579,208.31900697273568,11.032517958992306,18.997605467692523,-0.007317729050413287,-0.02095055627620438,0.25053386538388267,0.1452045392152948,-0.037109881116491016,-0.10500283491267708,1.1026406180746455,1.1507477107235604,-326359504745.9798,0.0,-1682512500749.7773,0.4270211613528861,0.5505502833629927,0.3908684432722831,-0.6014725041925547,-0.037109881116491016,-0.10500283491267708,1.1026406180746455
10.4,-67.18406031215416,33.680638302478705,269.93506794289914,280.2017563503611,0,9.42415913391567,208.75970075385504,11.032516233014276,18.997835598096636,-0.003907007807936833,-0.011052686832762906,0.0363363795973951,0.1618028615919006,0.017951164434086644,0.05209404970232369,-1.1273551883499375,1.08852182827816,41301595056068.57,0.0,-11549237807.052343,0.46675178854119026,0.480601657442491,0.3398571895500495,-0.660046896415908,0.017951164434086644,0.05209404970232369,-1.1273551883499375
10.5,-67.18481304584658,33.67853338341917,269.959853981761,280.2255617832127,0,9.434444991005645,208.9897959256961,11.03251003650456,18.998661799392032,-0.007527336924226829,-0.021049190595334798,0.24786038861862014,0.1438390874583127,-0.03620329116290008,-0.09996503762571927,2.1152400902122577,1.1588700168587482,41301595056068.57,0.0,-11549237807.052343,0.4251045072517806,0.5515096655652882,0.3884896306957538,-0.6034890666318335,-0.03620329116290008,-0.09996503762571927,2.1152400902122577
10.7,-67.1855762251477,33.67642361221588,269.9857063499236,280.25039659790264,0,9.4542580720486,209.4461108084199,11.03250357341252,18.999523544997455,-0.003815896505585683,-0.010548856016470192,0.1292618408129447,0.11920951073812099,0.018557202093205792,0.05250167289432321,-0.5929927390283793,1.020217256125398,41301595056068.57,0.0,-11549237807.052343,0.4233452138694947,0.5532393374855896,0.38819696269012977,-0.6033309071400664,0.018557202093205792,0.05250167289432321,-0.5929927390283793
10.8,-67.18634986322735,33.67430901539357,269.99026965137546,280.2547241386497,0,9.46381831028365,209.6723102387163,11.032502432587156,18.99967565504585,-0.007736380796501297,-0.021145968223094922,0.045633014518670544,0.12159879800712167,-0.03920484290915559,-0.10597112206624579,-0.8362882629427296,0.9623565665447146,41301595056068.57,0.0,-11549237807.052343,0.48653808205333005,0.43273983635847596,0.3024713723403889,-0.6960804534353973,-0.03920484290915559,-0.10597112206624579,-0.8362882629427296
11.0,-67.18713387302552,33.67218964958321,270.0158433915489,280.2792946264829,0,9.48257315403836,210.120742811271,11.032496039152113,19.00052811305163,-0.003920048990835326,-0.010596829051792194,0.1278687008672823,0.09486335094726416,0.019081659028329926,0.05274569585651383,0.41117843174306024,0.6063642109816062,41301595056068.57,0.0,-11549237807.052343,0.4214653738660143,0.5541642497418228,0.38586626156298803,-0.6052901379730775,0.019081659028329926,0.05274569585651383,0.41117843174306024
11.1,-67.18792829725282,33.67006556152091,270.02031377733726,280.28353657716957,0,9.491600509133468,210.34295602326654,11.032494921555665,19.000677125911242,-0.007944242273083574,-0.021240880623025836,0.04470385788351921,0.07818470518447736,-0.040241932822482625,-0.1064405157123368,-0.8316484298376339,0.6378493512072565,41301595056068.57,0.0,-11549237807.052343,0.48569994161060037,0.42994708024583056,0.2982306759858419,-0.7002139236037601,-0.040241932822482625,-0.1064405157123368,-0.8316484298376339
11.31,-67.1887330683909,33.66793681804691,270.0443962171112,280.3066744642083,0,9.51012075599029,210.80520245661052,11.032488900945722,19.00147987390371,-0.003832243514658596,-0.01013687368569545,0.11467828463791839,0.09570276703937909,0.01958094646869029,0.052876223511096866,0.33321155597332813,0.5724455667916206,41301595056068.57,0.0,-11549237807.052343,0.4204724456279776,0.5536861577456998,0.38261114873844104,-0.6084761869206403,0.01958094646869029,0.052876223511096866,0.33321155597332813
11.41,-67.18954821869276,33.665803436104596,270.0484300207368,280.3104997453632,0,9.518585572674432,211.0232032194721,11.032487892494816,19.00161433402456,-0.008151503018609703,-0.021333819423148347,0.04033803625588931,0.11638765315336237,-0.04319259503951123,-0.11196945737452937,-0.7434024838202934,0.6761294118245839,41301595056068.57,0.0,-11549237807.052343,0.48987418157173357,0.414846380192208,0.28558795998460684,-0.7115934823919321,-0.04319259503951123,-0.11196945737452937,-0.7434024838202934
11.6,-67.19037362018321,33.66366546273937,270.0746404995911,280.3356918421028,0,9.534352622539444,211.43359810560466,11.032481339875101,19.00248801665304,-0.004344218370764158,-0.011252491395945209,0.1379498887068194,0.11283809625567671,0.020038340251818713,0.05305962119580613,0.5137465918470019,0.6992499543279692,41301595056068.57,0.0,-11549237807.052343,0.4170055845628864,0.5571539733843953,0.3821347950474862,-0.6079957161028041,0.020038340251818713,0.05305962119580613,0.5137465918470019
11.7,-67.19120935465921,33.66152295509768,270.0977052665796,280.3578554855746,0,9.542478248138067,211.64757386401845,11.032475573683355,19.003256842219322,-0.008357344759986092,-0.021425076416861165,0.23064766988511648,0.13878061159721242,-0.04013126389221949,-0.10172585020915992,0.9269778117829741,1.1063229904675154,41301595056068.57,0.0,-11549237807.052343,0.4182571066402316,0.554105820241595,0.37862755063111475,-0.6121020426549922,-0.04013126389221949,-0.10172585020915992,0.9269778117829741
11.91,-67.19205545369033,33.659375960425976,270.10410133615255,280.36396249294893,0,9.558521339111604,212.09233335092716,11.032473974665962,19.003470044538417,-0.004029043005343288,-0.010223784150975008,0.030457474156805893,0.15513320509848688,0.020610960736394224,0.05333948698041005,-0.9532866463252847,1.072529946238361,41301595056068.57,0.0,-11549237807.052343,0.46051878486087194,0.4750852966159544,0.32342145553131296,-0.6764724472080172,0.020610960736394224,0.05333948698041005,-0.9532866463252847
12.0,-67.19291174861911,33.65722452606963,270.12602052432106,280.385026555203,0,9.565338377177664,212.28102409047852,11.032468494868919,19.004200684144035,-0.009514388097563335,-0.02390482618158296,0.2435465352056734,0.13207934517315495,-0.060948278802445056,-0.1520115781178664,2.3676562338763096,1.076679105225965,-98054989038408.64,0.0,-764575166657.2786,0.41725594849772424,0.5535996450755776,0.3754981889544171,-0.615163406346161,-0.060948278802445056,-0.1520115781178664,2.3676562338763096
12.2,-67.19377833056149,33.655068699471954,270.1515384486735,280.4095597901183,0,9.57971409712487,212.696166348446,11.032462115387832,19.00505128162245,-0.00433290971187718,-0.01077913298839665,0.12758962176207023,0.1381867861258406,0.025907391928430865,0.06562846596593179,-0.579784567218018,1.373001810200161,-98054989038408.64,0.0,-764575166657.2786,0.41348832545454534,0.5586747617645216,0.3775495520998212,-0.6118547629865893,0.025907391928430865,0.06562846596593179,-0.579784567218018
12.4,-67.19465519040722,33.652908528173086,270.1555518283917,280.4133772170403,0,9.593123517182995,213.10549604073105,11.032461112042903,19.00518506094639,-0.004384299228661325,-0.010800856494341758,0.020066898591153296,0.141203103848899,-0.0002569475839207225,-0.00010861752972554072,-0.5376136158545818,1.6220658589916006,-98054989038408.64,0.0,-764575166657.2786,0.48406093480084766,0.4137921789948107,0.2786164916867568,-0.7189116041368504,-0.0002569475839207225,-0.00010861752972554072,-0.5376136158545818
12.5,-67.19554218882027,33.650744059808986,270.18168018426684,280.43850265792986,0,9.599786040553841,213.30795839382168,11.032454579953933,19.00605600614223,-0.008869984130512907,-0.021644683641000105,0.26128355875130277,0.11782524655305888,-0.044856849018515985,-0.10843827146658386,2.4121666016015033,1.234411174590438,-98054989038408.64,0.0,-764575166657.2786,0.41114540628005325,0.5604045009569031,0.37598160180827966,-0.6128165184651396,-0.044856849018515985,-0.10843827146658386,2.4121666016015033
12.6,-67.19643945623929,33.64857534211037,270.1858053387151,280.4424317122496,0,9.606038736568184,213.50894039868865,11.032453548665321,19.006193511290505,-0.00897267419020412,-0.021687176986162703,0.04125154448274785,0.10173238764890409,-0.0010269005969121318,-0.0004249334516259766,-2.200320142685557,1.29139404169984,-98054989038408.64,0.0,-764575166657.2786,0.48040502050999834,0.4179520397543877,0.2793909687044015,-0.7186569385599438,-0.0010269005969121318,-0.0004249334516259766,-2.200320142685557
12.8,-67.19734684287803,33.646402402901664,270.2112993157935,280.4669500944975,0,9.618144713736385,213.90642769994,11.03244717517105,19.00704331052645,-0.004536933193719481,-0.010864696043526521,0.12746988539191695,0.12306866577046252,0.022178704982423074,0.05411240471318062,0.4310917045458432,1.272618090079622,-98054989038408.64,0.0,-764575166657.2786,0.4096328377952106,0.5607854061706781,0.37354023639095907,-0.6149702092157121,0.022178704982423074,0.05411240471318062,0.4310917045458432
12.9,-67.19826444872574,33.64422533009993,270.2154377412153,280.4708958816583,0,9.623824505824299,214.10291533028746,11.032446140564696,19.00718125804051,-0.009176058477038429,-0.02177072801735854,0.04138425421786011,0.11863560272834169,-0.046391252833189636,-0.10906031973832059,-0.8608563117405715,1.0101813307921774,-98054989038408.64,0.0,-764575166657.2786,0.4782324663411239,0.4183467601579706,0.2776609289430564,-0.7205443115736146,-0.046391252833189636,-0.10906031973832059,-0.8608563117405715
13.1,-67.19919214354768,33.64204415171385,270.2413070423655,280.49577998860764,0,9.634782973649124,214.491334887058,11.032439673239407,19.00804356807885,-0.004638474109697216,-0.01090589193040618,0.12934650575118714,0.11588790397693301,0.022687921836706145,0.054324180434762,0.43981125766663676,0.7778963698192941,-98054989038408.64,0.0,-764575166657.2786,0.4074747097325993,0.5622354798854214,0.37184680551457977,-0.6161051690376782,0.022687921836706145,0.054324180434762,0.43981125766663676
13.2,-67.20012993688547,33.63985890584262,270.265205348316,280.5187672736117,0,9.64008225371969,214.6832495504536,11.03243369866292,19.0088401782772,-0.009377933377976466,-0.021852458712246024,0.23898305950467688,0.1347504899329612,-0.04739459268279267,-0.10946566781839884,1.0963655375349013,1.036289201537012,-98054989038408.64,0.0,-764575166657.2786,0.4079215683347477,0.5604247602623285,0.36934625287168604,-0.6189567251931882,-0.04739459268279267,-0.10946566781839884,1.0963655375349013
13.4,-67.20107791805763,33.63766966067492,270.2715137898406,280.5248097045991,0,9.649684221289045,215.06244600009956,11.032432121552539,19.009050459661353,-0.004739905860802171,-0.01094622583849508,0.03154220762297638,0.15300012673460228,0.02319013758587135,0.05453116436875444,-1.037204259408497,0.9503181153633875,-98054989038408.64,0.0,-764575166657.2786,0.4516092060391246,0.4751533835537617,0.31203760993305146,-0.6876851874988962,0.02319013758587135,0.05453116436875444,-1.037204259408497
13.51,-67.20203586616005,33.63547646448786,270.2958521994301,280.5482251196146,0,9.654842275225526,215.26835139763472,11.032426036950142,19.009861739981005,-0.008708619112822365,-0.019938147155135807,0.2212582689956198,0.13651846027379927,-0.03607921138200195,-0.08174473924218885,1.7246914670240399,1.0577280544666567,30419514106168.258,0.0,732022196103.2743,0.40571678107487985,0.5619685005092966,0.3677781080004377,-0.619939159325485,-0.03607921138200195,-0.08174473924218885,1.7246914670240399
13.7,-67.2030039200663,33.63327934564586,270.32213401130696,280.573515057729,0,9.663037462910298,215.61953260223407,11.032419466497172,19.010737800376898,-0.005095020559203466,-0.011563783378938172,0.13832532566766567,0.11511865611115893,0.019018939755888992,0.04407559882209293,-0.436489175410286,0.9296410907959421,-647666385550.8938,0.0,-705729939893.5757,0.40345192482506664,0.5647000191004249,0.3682752700992828,-0.6186386329806998,0.019018939755888992,0.04407559882209293,-0.436489175410286
13.8,-67.20398204842829,33.63107836259965,270.32622576143996,280.5774277617888,0,9.666969318359119,215.80207290163648,11.03241844355964,19.010874192047996,-0.009781283619929443,-0.022009830462081624,0.04091750132999947,0.11783737779890817,-0.0468626306072591,-0.10446047083143303,-0.9740782433766482,0.9074170459914921,-709568133641.1353,0.0,-4930373521.779785,0.47306384590259226,0.41618060244379806,0.2704742676375115,-0.727906569825632,-0.0468626306072591,-0.10446047083143303,-0.9740782433766482
14.0,-67.20497011967659,33.62887357388517,270.35274878755854,280.60295423181793,0,9.674426947852506,216.16237186624852,11.03241181280311,19.011758292918618,-0.004940356241505146,-0.011023943572396928,0.13261513059291066,0.10033392391173981,0.024204636892121573,0.05492943444842367,0.4584881463145576,0.6564139501071574,-709568133643.9207,0.0,-4930373521.526791,0.4014533695910281,0.5659375648263335,0.36654588989926534,-0.6198338288286666,0.024204636892121573,0.05492943444842367,0.4584881463145576
14.1,-67.205968242021,33.626665008122494,270.35681252916726,280.60684390771246,0,9.677768327319374,216.34011451823014,11.032410796867708,19.01189375097224,-0.009981223444128808,-0.022085657626789237,0.040637416087179336,0.08110292358504838,-0.0504086720262368,-0.11061714054392348,-0.9197771450573166,0.7471763366013574,-709568133634.0774,0.0,-4930373521.521978,0.47155245463556017,0.4149266495371478,0.2678134247285245,-0.7305820471146508,-0.0504086720262368,-0.11061714054392348,-0.9197771450573166
14.3,-67.20697626345103,33.624452704014786,270.38366432756,280.63269127690603,0,9.684045763949957,216.69074666367496,11.03240408391811,19.012788810918664,-0.005040107150122681,-0.011061520538539978,0.13425899196363317,0.10032861459552841,0.0247055814700305,0.055120685441246,0.4681078793822667,0.6635322791534197,-709568133625.8553,0.0,-4930373521.771463,0.3994221035143372,0.5672462901958837,0.3648926352592934,-0.6209243063503939,0.0247055814700305,0.055120685441246,0.4681078793822667
14.41,-67.20799430173625,33.62223674034717,270.3876846258338,280.6365430566831,0,9.687053398557447,216.88081797993723,11.032403078843542,19.012922820861128,-0.009254893502037006,-0.020145124251058737,0.03654816612559214,0.12319963165203807,-0.03831623956285769,-0.08257821556835278,-0.8882802348912866,0.7789048755724772,-61901748071.86068,0.0,700799566371.9264,0.47028028348332396,0.41301665550420186,0.2647725722238606,-0.733586519942214,-0.03831623956285769,-0.08257821556835278,-0.8882802348912866
14.6,-67.209022184427,33.62001716598572,270.4148603689029,280.6627066882261,0,9.691885330512319,217.20444565163936,11.032396284907774,19.01382867896343,-0.005409908898681557,-0.011681970323407845,0.14303022667951718,0.12041241779244741,0.02023676107029189,0.044542915408689016,0.5604318976522384,0.8089679142222183,-61901748071.86068,0.0,700799566371.9264,0.3974131664979699,0.568530694634369,0.3632494474817398,-0.6220011762503586,0.02023676107029189,0.044542915408689016,0.5604318976522384
14.7,-67.21005996885468,33.61779400987635,270.4394904035122,280.68641970145063,0,9.694243603590284,217.37238167213866,11.032390127399122,19.014649680117074,-0.010377844276803253,-0.022231561093733,0.2463003460928812,0.1411257690502097,-0.049679353781217135,-0.10549590770325193,1.032701194133644,1.1274414907471324,-61901748071.86068,0.0,700799566371.9264,0.39818476393976643,0.5661141106654087,0.360491359505623,-0.6253076740241827,-0.049679353781217135,-0.10549590770325193,1.032701194133644
14.9,-67.21110771213239,33.615567341043736,270.44569627825086,280.69238322936377,0,9.697932466868796,217.70326335739577,11.032388575930437,19.014856542608364,-0.005238716388546977,-0.011133344163063382,0.031029373693342965,0.1584427441496742,0.025695639441281243,0.055491084653347796,-1.0763548619976855,1.0579074185309039,-61901748071.86068,0.0,700799566371.9264,0.4432572573198281,0.4743963274013815,0.3010668802471187,-0.6984481813274711,0.025695639441281243,0.055491084653347796,-1.0763548619976855
15.0,-67.21216524115535,33.613337188590236,270.46940564356566,280.71521330797503,0,9.699684029643766,217.86619431635535,11.032382648589108,19.015646854785523,-0.010575290229581962,-0.022301524534995645,0.23709365314800918,0.1377347428558765,-0.05336573841035004,-0.11168180371932303,2.0606427945466694,1.1415586676423621,-61901748071.86068,0.0,700799566371.9264,0.3970876004640227,0.5658086099537419,0.3578959317253902,-0.6277679161237484,-0.05336573841035004,-0.11168180371932303,2.0606427945466694
15.2,-67.21323259260144,33.6111036116948,270.49515315177433,280.74000926149637,0,9.70237181946891,218.1870002605127,11.032376211712055,19.016505105059146,-0.00533675723048079,-0.011167884477174579,0.128737541043336,0.11465263801378209,0.026192664995505953,0.055668200289105525,-0.5417805605233678,1.034540268840995,-61901748071.86068,0.0,700799566371.9264,0.3947384662890498,0.5688140365140603,0.35860649970087083,-0.6261257968400913,0.026192664995505953,0.055668200289105525,-0.5417805605233678
15.3,-67.21430983293176,33.608866669611906,270.49829805707833,280.74302950725075,0,9.703318871113735,218.34486098772135,11.03237542548573,19.016609935235945,-0.010772403303178482,-0.022369420828951228,0.03144905303997758,0.1157797037295862,-0.05435646072697615,-0.11201536351776491,-0.9728848800335704,1.0235508439888015,-61901748071.86068,0.0,700799566371.9264,0.47877808397336125,0.3692512050520263,0.23201723676291985,-0.7619665975089215,-0.05435646072697615,-0.11201536351776491,-0.9728848800335704
15.5,-67.21539680839108,33.60662639167046,270.5246022155759,280.7683659343309,0,9.704813550534473,218.65546287267864,11.032368849446106,19.017486740519196,-0.005434877296579562,-0.011201389707231653,0.13152079248783413,0.09421943259779171,0.026687630032994694,0.05584015560859808,0.5003586972392845,0.7114476192692434,-61901748071.86068,0.0,700799566371.9264,0.3926117516175029,0.5703387644796114,0.3572008402230842,-0.6268789882964887,0.026687630032994694,0.05584015560859808,0.5003586972392845
15.6,-67.21649360500837,33.604382847272696,270.5275997852747,280.77124818022224,0,9.705159438312679,218.80819022595023,11.03236810005368,19.017586659509156,-0.010967966172899007,-0.022435443977642047,0.029975696987776353,0.0753260310102944,-0.05533088876319464,-0.11234054270410435,-1.0154509550005812,0.7917339882778024,-61901748071.86068,0.0,700799566371.9264,0.4795220873919821,0.35985898887140916,0.2246355867425698,-0.7681789693818132,-0.05533088876319464,-0.11234054270410435,-1.0154509550005812
15.8,-67.21760003859735,33.602136045893126,270.55359412610414,280.79629021115693,0,9.705451234258522,219.1084638150948,11.032361601468473,19.018453137536806,-0.005532167944934911,-0.011234006897851085,0.12997170414735068,0.09539071631348836,0.027178991139820335,0.05600718539895451,0.499980035797869,0.7153818013883196,-61901748071.86068,0.0,700799566371.9264,0.3910717383851248,0.5708579410734498,0.355204316324152,-0.6285013923727695,0.027178991139820335,0.05600718539895451,0.499980035797869
15.91,-67.21871628475705,33.59988609707739,270.5564922999282,280.79908064370215,0,9.70515674847293,219.2706541433393,11.032360876925017,19.01854974333094,-0.010147692360879536,-0.020454080143072137,0.026347034764223252,0.11545351551833502,-0.04195931287222408,-0.08381884768382818,-0.9420424489375269,0.7818826228197203,-61901748071.86068,0.0,700799566371.9264,0.47943128197742857,0.3530069128862263,0.21892917249090602,-0.7730470766702779,-0.04195931287222408,-0.08381884768382818,-0.9420424489375269
16.1,-67.2198421288723,33.59763300044122,270.5830475705572,280.8246672777042,0,9.704293744548353,219.54582189342418,11.032354238107361,19.019434919018572,-0.005925495343424325,-0.011858403348247967,0.13976458225783878,0.11264426261220757,0.022222089565553594,0.0452404041832848,0.5969344604927093,0.7987211564095104,-61901748071.86068,0.0,700799566371.9264,0.38898195043514366,0.5723544582619177,0.353833416090881,-0.6292100841538029,0.022222089565553594,0.0452404041832848,0.5969344604927093
16.21,-67.22097760611429,33.59537682566931,270.60848900375976,280.84918282821906,0,9.703565010561551,219.70223234012272,11.032347877749059,19.02028296679199,-0.010322520381707457,-0.02051067974461913,0.23128575638690105,0.13798284471860248,-0.03997295489348323,-0.07865705814882917,0.8320106739005704,1.168366978202362,-61901748071.86068,0.0,700799566371.9264,0.38885335108570096,0.5714776691679488,0.3521601010643431,-0.6310226685390475,-0.03997295489348323,-0.07865705814882917,0.8320106739005704
16.4,-67.22212284144112,33.593117642514265,270.6125003672751,280.8530518033979,0,9.701337766311099,219.96736217026677,11.03234687490818,19.02041667890917,-0.006027554351742622,-0.011890437658142983,0.021112439554527854,0.15671872080389218,0.022605084368236245,0.04536969519198027,-1.1061753517493458,1.1016237210895121,-61901748071.86068,0.0,700799566371.9264,0.458353227448197,0.41135310297391225,0.25266266769812146,-0.7462322158103495,0.022605084368236245,0.04536969519198027,-1.1061753517493458
16.5,-67.22327757959836,33.59085544079542,270.63810133082444,280.8777251932622,0,9.700111070216082,220.1043312027646,11.032340474667294,19.021270044360815,-0.011547381572398598,-0.022622017188424725,0.25600963549322475,0.13677913844184347,-0.05519827220655897,-0.10731579530281589,2.348971959386936,1.2043199655464734,-61901748071.86068,0.0,700799566371.9264,0.3870391981600586,0.5725017071422155,0.3505410378948912,-0.6321103029997536,-0.05519827220655897,-0.10731579530281589,2.348971959386936
16.71,-67.2244418951196,33.58859032039782,270.6649750661221,280.9036270954263,0,9.69661737315813,220.3861572640814,11.032333756233468,19.022165835537404,-0.005544359624937398,-0.010786287607630984,0.12797016808414238,0.11579063366033097,0.028585818797434166,0.05636061705139854,-0.6097117495670564,1.1313254943907132,-61901748071.86068,0.0,700799566371.9264,0.38537487182985436,0.5743867475178286,0.35057939349286227,-0.631395408041736,0.028585818797434166,0.05636061705139854,-0.6097117495670564
16.8,-67.22561589232699,33.58632234127111,270.66760024688773,280.9061663686354,0,9.69476240686503,220.5045198979427,11.032333099938278,19.022253341562923,-0.013044413415425697,-0.025199768074596996,0.029168675173549617,0.11813114457818494,-0.08333393100542567,-0.1601497829662893,-1.0977943656732545,1.1130805115951403,-61901748071.86068,0.0,700799566371.9264,0.4788125651305242,0.33236106744256333,0.20220623374432353,-0.7870116183110025,-0.08333393100542567,-0.1601497829662893,-1.0977943656732545
17.01,-67.22679931533186,33.58405151342838,270.69424834885643,280.9318549958208,0,9.690013423783132,220.775021494724,11.032326437912786,19.023141611628546,-0.005635347642261118,-0.010813465917756178,0.1268957236604923,0.09498447393072372,0.03528126558649785,0.06850620074686076,0.46536689755686794,0.7640763188766956,-61901748071.86068,0.0,700799566371.9264,0.38382845779491326,0.5749546832875821,0.34871330645941223,-0.632852160500854,0.03528126558649785,0.06850620074686076,0.46536689755686794
17.11,-67.22799235803521,33.58177793694512,270.6968666497905,280.93439159332695,0,9.687343775459846,220.90102607307088,11.032325783337551,19.02322888832635,-0.011930427033491042,-0.022735764832547065,0.02618300934045748,0.07572016510954722,-0.06295079391230057,-0.1192229891479114,-1.0071271432003697,0.8582334540371214,-61901748071.86068,0.0,700799566371.9264,0.4770143452787985,0.3313475296513409,0.20032390636030345,-0.7890097981221408,-0.06295079391230057,-0.1192229891479114,-1.0071271432003697
17.3,-67.22919475412839,33.579501601958114,270.7236344294899,280.9601996615117,0,9.681944023696332,221.13542212361364,11.032319091392628,19.024121147649666,-0.006328400490405598,-0.011980710457941843,0.14088305104953658,0.09602621151868898,0.029484350226765297,0.0566055493400271,0.6036844300477807,0.7619288053096787,-61901748071.86068,0.0,700799566371.9264,0.3820858219343702,0.5758939278852055,0.347101809128973,-0.6339376488276119,0.029484350226765297,0.0566055493400271,0.6036844300477807
17.41,-67.23040674709358,33.577222618664265,270.7260634698026,280.96255784715976,0,9.67836121181027,221.26811091169353,11.03231848413255,19.02420211566009,-0.011018117865417495,-0.020718029944078006,0.02208218466121677,0.12161902497129959,-0.0426337943182902,-0.0794301771466928,-1.0800078762574583,0.8940393243526057,-61901748071.86068,0.0,700799566371.9264,0.4787383422404184,0.31597109298112697,0.18983722468563863,-0.7968272687307221,-0.0426337943182902,-0.0794301771466928,-1.0800078762574583
17.6,-67.23162802020441,33.57494097731958,270.75296185463577,280.98849588717235,0,9.671838252821594,221.49206935496062,11.032311759536341,19.02509872848786,-0.006427753214890493,-0.01200863865625022,0.14157044649024053,0.11919217189537719,0.024159813950141957,0.04583890151488278,0.628885588573805,0.9244926030965926,-61901748071.86068,0.0,700799566371.9264,0.3803498367828461,0.5768333739928655,0.3455121536289054,-0.6349949700603817,0.024159813950141957,0.04583890151488278,0.628885588573805
17.7,-67.2328586865266,33.572656758238,270.778374169965,281.0130041245395,0,9.66823268727574,221.6072705583609,11.032305406457509,19.0259458056655,-0.012306663221864063,-0.02284219081580878,0.2541231532922038,0.13535588055143738,-0.05878910006973695,-0.10833552159558792,1.1255270680196567,1.16774388513562,-61901748071.86068,0.0,700799566371.9264,0.38048876864812636,0.5754472668981596,0.3436182332404281,-0.6371932593309486,-0.05878910006973695,-0.10833552159558792,1.1255270680196567
17.9,-67.23409889891849,33.57037004179031,270.7825354038452,281.0170373468964,0,9.6599671980035,221.83212031178587,11.032304366149038,19.026084513461505,-0.00620106195945882,-0.011433582238424873,0.02080616940105536,0.15633146674393544,0.030528006312026325,0.057043042886919734,-1.1665849194557463,1.0407372308241178,19.98949810782972,0.0,-0.1060592014541271,0.44738613952851475,0.4165158801023374,0.2479317471993619,-0.7515916527683231,0.030528006312026325,0.057043042886919734,-1.1665849194557463
18.01,-67.23534826003166,33.568080798403045,270.80685464642,281.04049641932943,0,9.655308430259389,221.95262027996372,11.032298286338394,19.026895154880666,-0.01135782830152173,-0.02081130352060846,0.22108402340718197,0.1358649882499796,-0.04687969401875246,-0.0852520116562121,1.8207077636920106,1.1286592801289665,6.556864188206677,0.0,0.11008026318017983,0.3796358183242552,0.574748994761885,0.341100691795033,-0.6396800423042959,-0.04687969401875246,-0.0852520116562121,1.8207077636920106
18.2,-67.23660696231151,33.56578913855735,270.83277208993167,281.0654976232681,0,9.64654597866023,222.15543897824057,11.032291806977517,19.02775906966439,-0.006624748841345256,-0.012061367608925953,0.1364075974298614,0.1101500817150304,0.024910944527244894,0.04605229427201374,-0.44566539988063997,0.999209377034283,6.556864188206677,0.0,0.11008026318017983,0.3777018559909779,0.5772183461055456,0.34151593078522835,-0.6383785381104602,0.024910944527244894,0.04605229427201374,-0.44566539988063997
18.3,-67.23787510799792,33.563495132787864,270.8357792287307,281.06842470295584,0,9.641546575953903,222.25947103435806,11.032291055192816,19.027859307624357,-0.012681456864100757,-0.022940057694853196,0.030071387990346494,0.11315224505351773,-0.060567080227554145,-0.10878690085927088,-1.0633620943951338,0.9607075063651414,6.556864188206677,0.0,0.11008026318017983,0.4624324237452749,0.3566623069029309,0.2103661642725587,-0.7840244442828302,-0.060567080227554145,-0.10878690085927088,-1.0633620943951338
18.5,-67.23915235912584,33.56119876168164,270.8610167592846,281.0927748487469,0,9.631160573543445,222.46189603116898,11.032284745810179,19.02870055864282,-0.006386255639583305,-0.011481855531130278,0.12618765276954536,0.09546859828463443,0.03147600612258737,0.05729101081861479,0.48058132389599606,0.7006577097555787,6.556864188206677,0.0,0.11008026318017983,0.3765451411182452,0.5771006941668723,0.3393755376147038,-0.6403067936240295,0.03147600612258737,0.05729101081861479,0.48058132389599606
18.6,-67.24043900752586,33.558900155877005,270.86396658018765,281.095650640756,0,9.625582231959704,222.56027997522926,11.032284008354953,19.028798886006257,-0.012866484000255514,-0.022986058046327813,0.029498209030407032,0.07982561463948987,-0.06480228360672116,-0.11504202515197372,-0.9668944373913695,0.7744408216459174,6.556864188206677,0.0,0.11008026318017983,0.46160084069762014,0.3524992592152227,0.20665301732995853,-0.7873775882944557,-0.06480228360672116,-0.11504202515197372,-0.9668944373913695
18.8,-67.24173467482491,33.55659928606245,270.8906227921698,281.12137192759735,0,9.614058616464888,222.75136889183602,11.032277344301956,19.02968742640566,-0.0064783364952347945,-0.01150434907277291,0.13328105991064423,0.1146069680255311,0.03194073752510371,0.05740854486777472,0.5189142544011879,0.721643135222067,6.556864188206677,0.0,0.11008026318017983,0.3740110012791842,0.5795954245067416,0.3387916344916089,-0.6398477500245634,0.03194073752510371,0.05740854486777472,0.5189142544011879
18.9,-67.24303971244682,33.554296312975495,270.89588279810465,281.12647777787333,0,9.607930057710307,222.8440653715732,11.032276029300473,19.029862759936822,-0.01305037621904176,-0.023029730869553112,0.05260005934872082,0.1761012549240182,-0.06572039723807105,-0.11525381796780448,-0.8068100056192513,1.0657274451956695,6.556864188206677,0.0,0.11008026318017983,0.4286267487402346,0.4532844280895901,0.26414017222112396,-0.7355557809812006,-0.06572039723807105,-0.11525381796780448,-0.8068100056192513
19.1,-67.24435379161298,33.5519911974016,270.9385601030191,281.1676414185306,0,9.595425463610212,223.02374177495693,11.032265359974245,19.031285336767304,-0.0065703958308204365,-0.01152557786948433,0.2133865245721692,0.24331568673598034,0.03239990194110615,0.05752076500034309,0.8039323261172304,0.9301907846368287,6.556864188206677,0.0,0.11008026318017983,0.3660846174584762,0.5921285296762183,0.3440309676537397,-0.6300861452999841,0.03239990194110615,0.05752076500034309,0.8039323261172304
19.2,-67.24567697334297,33.54968399017302,270.981912714101,281.209458207999,0,9.589110074511659,223.11071371301512,11.032254521821475,19.032730423803365,-0.013231817299868281,-0.02307207228575741,0.4335261108190117,0.299288252128219,-0.06661421469047987,-0.11546494416273326,2.201395862468472,0.9053107416471079,6.556864188206677,0.0,0.11008026318017983,0.36512968407379787,0.592830718010963,0.3434153210519215,-0.6303157707511213,-0.06661421469047987,-0.11546494416273326,2.201395862468472
19.4,-67.24700953845522,33.54737497216771,271.05698944070764,281.2818483017491,0,9.575799922451477,223.27890573501014,11.032235752639822,19.03523298135692,-0.006662825561249998,-0.011545090026565716,0.3753836330332674,0.34896773136687853,0.032844958693091536,0.05763491129595868,-0.2907123889287227,0.848558923648891,6.556864188206677,0.0,0.11008026318017983,0.35982739921524476,0.6013777051770053,0.3472768304134082,-0.6231114679959348,0.032844958693091536,0.05763491129595868,-0.2907123889287227
19.5,-67.24835094756762,33.54506388430816,271.0982826943736,281.32168579049863,0,9.568902256951475,223.36011834377368,11.032225429326406,19.036609423145787,-0.013414091123990866,-0.02311087859546002,0.41293253665969,0.3379235014378092,-0.06751265562740771,-0.11565788568894139,0.3754890362642207,0.9898338771655076,6.556864188206677,0.0,0.11008026318017983,0.36406314561786285,0.5926630202094519,0.3412653501551137,-0.6322551156475881,-0.06751265562740771,-0.11565788568894139,0.3754890362642207
19.7,-67.24970166109817,33.54275104756034,271.1596807888186,281.3809002168401,0,9.554338420270977,223.5167587098137,11.032210079802795,19.038656026293953,-0.006753567652779704,-0.011564183739132303,0.30699047222498277,0.3218801118336852,0.03330261735605593,0.05773347428163879,-0.529710322173538,0.7467817396642512,6.556864188206677,0.0,0.11008026318017983,0.35961713409299384,0.5997385519259587,0.34427158378511175,-0.626471278510505,0.03330261735605593,0.05773347428163879,-0.529710322173538
19.8,-67.25106101926566,33.54043608293248,271.1753096399552,281.3960103114041,0,9.54662900696317,223.59217950532195,11.03220617259001,19.03917698799851,-0.0135935816749109,-0.023149646278568196,0.15628851136568533,0.3110987710876591,-0.068400140221311,-0.11585462539435729,-1.507019608592953,0.7589975603802852,6.556864188206677,0.0,0.11008026318017983,0.3798713670033299,0.5593180780609277,0.3201841196156083,-0.6635835754682519,-0.068400140221311,-0.11585462539435729,-1.507019608592953
20.0,-67.2524296120903,33.53811951147404,271.2460833658961,281.4642650327635,0,9.531055687310324,223.73720556134907,11.032188479158526,19.041536112196535,-0.006842964123166009,-0.011582857292218349,0.3538686297045514,0.31206999449357764,0.03375308775872458,0.05783394493174944,0.9879005916943339,0.7780399387891433,6.556864188206677,0.0,0.11008026318017983,0.3570774104093161,0.6023569631351527,0.343760169357614,-0.6256922229828318,0.03375308775872458,0.05783394493174944,0.9879005916943339
20.1,-67.25380713939438,33.535801064274544,271.2781414869612,281.4952123507347,0,9.522962541520014,223.80680437628936,11.03218046462826,19.042604716232038,-0.013775273040863371,-0.023184471994923354,0.32058121065119394,0.3345135721209571,-0.06932308917697264,-0.1160161470270484,-0.33287419053357,0.6984145878001653,6.556864188206677,0.0,0.11008026318017983,0.3640772525013048,0.588250398455895,0.3347361092501752,-0.6398132228171255,-0.06932308917697264,-0.1160161470270484,-0.33287419053357
20.3,-67.25519358080301,33.533480992462444,271.36182832568534,281.5759174420317,0,9.506429765559973,223.94015811381485,11.032159542918578,19.045394277522846,-0.0069322070431354875,-0.011600359060501872,0.41843419362067075,0.3956064264503559,0.03421532998863954,0.05792056467210761,0.48926491484738577,0.4773121098546261,6.556864188206677,0.0,0.11008026318017983,0.35452432940164064,0.6050068654595416,0.34325938172806136,-0.6248617362783595,0.03421532998863954,0.05792056467210761,0.48926491484738577
20.4,-67.25658891574463,33.531159167203995,271.40369080682416,281.61631836817276,0,9.497894209975001,224.00390710958922,11.032149077298294,19.046789693560804,-0.013953349416198376,-0.02321825258448534,0.4186248113882219,0.414985203821802,-0.07021142373063038,-0.11617893523983716,0.0019061776755114185,0.2964439498991117,6.556864188206677,0.0,0.11008026318017983,0.35923796507585026,0.5952454687196238,0.3367436491034951,-0.6350075835809992,-0.07021142373063038,-0.11617893523983716,0.0019061776755114185
20.51,-67.25799278345184,33.52883577970215,271.4546631573614,281.6655012099949,0,9.488348336249008,224.0717720395872,11.032136334210659,19.048488771912044,-0.012762433701915954,-0.021121704562237983,0.4633850048838252,0.40617245541567115,0.010826506493476272,0.019059527474975455,0.4069108499600193,0.3980683892669492,1086878665671.2467,0.0,-282297119129.86896,0.35655314676470945,0.5992649379717233,0.3380698099234814,-0.6320286316839067,0.010826506493476272,0.019059527474975455,0.4069108499600193
20.7,-67.25940589296202,33.52651088119541,271.54031340651494,281.74810809985837,0,9.471331260063305,224.1834088667562,11.03211492164837,19.051343780217167,-0.007437418474640606,-0.012236307930224129,0.45079078501873876,0.5305298374701202,0.028026395933028487,0.046765245431652426,-0.06628536771098219,1.8250715695208939,1086878665671.2467,0.0,-282297119129.86896,0.3520867991200602,0.6064567113393943,0.341080398104908,-0.6260266010205912,0.028026395933028487,0.046765245431652426,-0.06628536771098219
20.9,-67.26082762311799,33.524184372956675,271.5957763857436,281.8016245889892,0,9.452386930748661,224.29326263823438,11.032101055903563,19.053192546191454,-0.007108650779841266,-0.011632541193655796,0.27731489614325355,0.5175506171453514,0.0016438384739967027,0.0030188336828416745,-0.8673794443774291,3.1709895535079156,1086878665671.2467,0.0,-282297119129.86896,0.35427878507105737,0.6014025874969405,0.3372904676063912,-0.6316934467464598,0.0016438384739967027,0.0030188336828416745,-0.8673794443774291
21.0,-67.26225803256877,33.5218563562922,271.6997844287526,281.9019316497182,0,9.443416577585273,224.3452378494807,11.032075053892811,19.05665948095842,-0.014304094507764173,-0.023280166644780945,1.0400804300900142,0.4894691497605067,-0.07195443727922804,-0.11647625451124984,7.6276553394674975,3.1226380416829485,1086878665671.2467,0.0,-282297119129.86896,0.3496442370369033,0.6089949444995937,0.34057951917586776,-0.625203691766734,-0.07195443727922804,-0.11647625451124984,7.6276553394674975
21.1,-67.26369734977011,33.519526942540324,271.7351389714996,281.9360732851924,0,9.433587048984613,224.39524216856668,11.032066215257124,19.057837965716654,-0.014393172013455819,-0.023294137518731998,0.3535454274702892,0.43686616459974414,-0.0008907750569164518,-0.00013970873951052256,-6.865350026197152,3.3815747087684196,1086878665671.2467,0.0,-282297119129.86896,0.3574171455428346,0.5932607222201048,0.33080554811440605,-0.640985482581017,-0.0008907750569164518,-0.00013970873951052256,-6.865350026197152
21.3,-67.26514540298542,33.51719626307047,271.7998076522006,281.9984710440736,0,9.413353756789146,224.4893293283274,11.03205004808695,19.059993588406687,-0.00724026607656472,-0.011653397349284986,0.32334340350502205,0.4900843974118949,0.03576452968445562,0.058203700847235265,-0.15101011982633636,3.565945398931202,1086878665671.2467,0.0,-282297119129.86896,0.3508142146969069,0.604767320673419,0.336244829896299,-0.6309717022023218,0.03576452968445562,0.058203700847235265,-0.15101011982633636
21.4,-67.26660211028627,33.51486417928193,271.81840581133497,282.0164669274383,0,9.402844921386642,224.53340798736608,11.032045398547165,19.0606135270445,-0.014567073008464914,-0.02332083788537936,0.18598159134342437,0.33796992338478526,-0.07326806931900351,-0.11667440536094624,-1.3736181216160062,2.304208783969151,1086878665671.2467,0.0,-282297119129.86896,0.36708132518159214,0.571410316915903,0.31680016152702484,-0.6621021130320038,-0.07326806931900351,-0.11667440536094624,-1.3736181216160062
21.6,-67.26806738955321,33.512530892602776,271.9271190916509,282.12132268695683,0,9.382038112473875,224.61562566862588,11.032018220227087,19.06423730305503,-0.00732639633469024,-0.011666433395767062,0.5435664015797592,0.6100300298238812,0.03620338336887286,0.058272022448060665,1.7879240511816488,3.8015833440687743,-2169520241456.7974,0.0,267623641143.99933,0.3464258906917791,0.6109435930517273,0.33775732353840604,-0.6266235063924953,0.03620338336887286,0.058272022448060665,1.7879240511816488
21.8,-67.26954131847641,33.51019632448869,271.9830243381707,282.17528236017046,0,9.360038138624455,224.68991180060564,11.032004243915457,19.066100811272356,-0.007369644616019881,-0.011672840570433649,0.2795262325989266,0.7748481762219341,-0.00021624140664820615,-3.2035873332933566e-05,-1.3202008449041678,4.799777539977817,1742225538961.1135,0.0,541772301752.2079,0.34969217686707227,0.603778968698053,0.33284856788957484,-0.6343328536736392,-0.00021624140664820615,-3.2035873332933566e-05,-1.3202008449041678
21.9,-67.27102393455644,33.50786075642187,272.1544924981951,282.3406367858257,0,9.350226709833542,224.72407635352403,11.03196137687545,19.071816416606502,-0.014826160800254545,-0.023355680668189435,1.7146816002440712,1.0432020764629768,-0.07456516184234822,-0.11682840097756035,14.35155367645175,4.906104171925817,2702954082240.3467,0.0,270923321206.01132,0.34334792922634183,0.6146458033271086,0.33785314991042614,-0.6246422856675325,-0.07456516184234822,-0.11682840097756035,14.35155367645175
22.01,-67.27251481510487,33.50552390990986,272.2807118213085,282.4623822953146,0,9.338622115317586,224.75936147849427,11.031929822044672,19.07602372737695,-0.013553459531191001,-0.02124405920007766,1.147448391939871,1.2941363679413165,0.01157001153694099,0.019196558801015624,-5.156665530038044,5.085954446607256,1351477041120.1787,0.0,135461660602.81723,0.3436193235245037,0.6132057335912183,0.33615588717137096,-0.6268203158094406,0.01157001153694099,0.019196558801015624,-5.156665530038044
22.21,-67.27401436724516,33.50318598648442,272.58665375938295,282.7573876807943,0,9.317787581159998,224.81734819391818,11.031853336560154,19.086221791979433,-0.007497760701440397,-0.01168961712721743,1.529709690372277,1.6817650480955373,0.030278494148753127,0.04777221036430131,1.9113064921620373,5.263988724296306,0.049707675614902545,0.0,-0.3244160316960543,0.34069247605339514,0.6176390727136898,0.337613524952791,-0.6232717869332218,0.030278494148753127,0.04777221036430131,1.9113064921620373
22.31,-67.27552238791324,33.50084708770041,272.7664734665825,282.930824965319,0,9.307399413942523,224.84335436165958,11.031808381633354,19.092215782219416,-0.015080206680835638,-0.023388987840107733,1.7981970719955982,1.8412549815143322,-0.07582445979395402,-0.11699370712890553,2.684873816233268,2.6878988328768565,0.194263445965056,0.0,-0.32551562096207454,0.3410286674681994,0.6160412354353758,0.3357917116991625,-0.625648919572524,-0.07582445979395402,-0.11699370712890553,2.684873816233268
22.5,-67.27703874385831,33.498507165134626,273.18788619936754,283.33720385878337,0,9.288025255769519,224.88727439718247,11.031703028450158,19.106262873312254,-0.007980820763532938,-0.012315381925164097,2.217961751500139,2.109960615800275,0.03736518903843501,0.0582821363944398,2.2092877868659886,1.700374415882044,0.2945445048356802,0.0,-0.26410468969580564,0.33881726102517223,0.6191960667018753,0.3365828811175212,-0.6233065527900021,0.03736518903843501,0.0582821363944398,2.2092877868659886
22.7,-67.27856333164353,33.49616628038469,273.69034931649816,283.82178483766876,0,9.267613398223489,224.92572553980804,11.031577412670876,19.123011643883274,-0.007622938926061833,-0.011704423749669998,2.512315585653093,2.44153801525096,0.0017894091873555294,0.003054790877470503,1.471769170764777,2.8655182171219677,0.11606601327490304,0.0,-0.13819459136156692,0.3379272321608422,0.6199097475324943,0.3360536544422289,-0.6233658893573937,0.0017894091873555294,0.003054790877470503,1.471769170764777
22.81,-67.28009640764682,33.4938246550679,273.9643728790383,284.08612297972496,0,9.256101927167604,224.94346972623535,11.03150890678024,19.132145762634607,-0.0139370545754374,-0.021287502879956104,2.491123295819568,2.6762124195723316,-0.057401051357959997,-0.0871189011844196,-0.19265718030477627,2.5442536331515146,255858984068.99683,0.0,129800584967.28091,0.3379592382881293,0.6188589142668065,0.33452499023437965,-0.625212146712542,-0.057401051357959997,-0.0871189011844196,-0.19265718030477627
22.9,-67.28163780806156,33.49148223082007,274.25124855035875,284.36287644413636,0,9.24717363829193,224.9561900051043,11.03143718786241,19.14170828501196,-0.017126671274859822,-0.026026936086983258,3.187507459116058,2.536157894117239,-0.03544018554913808,-0.052660368966968456,7.737601814405459,3.5562579711659046,511717968137.91327,0.0,259601169934.62256,0.3371580446676084,0.619385220085959,0.33387858275112486,-0.625469019244825,-0.03544018554913808,-0.052660368966968456,7.737601814405459
23.1,-67.2831872888973,33.48913897929443,274.84559879614056,284.93622602072975,0,9.226466544080347,224.97866237724656,11.031288600300964,19.161519959871352,-0.007747404178672813,-0.011716257628186899,2.971751228909014,3.2428455613736347,0.04689633548093438,0.07155339229398078,-1.0787811510352043,12.318056470804894,275476676227.2784,0.0,515043842327.5246,0.335615025889701,0.621336511690005,0.334032476836339,-0.6242802239832143,0.04689633548093438,0.07155339229398078,-1.0787811510352043
23.3,-67.2847449759806,33.48679508216046,275.1491332843781,285.22911474550034,0,9.20226010777742,224.99313866120556,11.031212716678905,19.171637776145936,-0.00778843541652921,-0.011719485669843308,1.5176724411875906,3.301129967936651,-0.00020515618928198726,-1.614020828204227e-05,-7.270393938607144,15.537355960948355,275476676227.2784,0.0,515043842327.5246,0.3356516846834486,0.6203000422065369,0.33255403668149947,-0.6260779639107028,-0.00020515618928198726,-1.614020828204227e-05,-7.270393938607144
23.4,-67.28631098495572,33.48445058110277,275.7537059853818,285.81246026259055,0,9.19446664599207,224.9973774103485,11.031061573503655,19.191790199512727,-0.015660089751179718,-0.023445010576921776,6.045727010037596,3.1123492027462767,-0.07871654334650675,-0.11725524907078719,45.28054568850102,15.06828010552293,275476676227.2784,0.0,515043842327.5246,0.33415360157656154,0.622130410456282,0.3325989183324907,-0.6250384647867424,-0.07871654334650675,-0.11725524907078719,45.28054568850102
23.6,-67.28788492128534,33.48210538781992,276.31023387178107,286.3495349754554,0,9.171923870258162,224.99985518102872,11.030922441532054,19.210341129059366,-0.007869681648102644,-0.011725966414246447,2.7826394319961483,3.080086871503461,0.03895204051538481,0.058595220813375815,-16.315437890207008,15.985351237225995,275476676227.2784,0.0,515043842327.5246,0.33353482459122663,0.6223668300876298,0.33184642100265443,-0.6255333743768625,0.03895204051538481,0.058595220813375815,-16.315437890207008
23.7,-67.28946740025147,33.47975962402335,276.53459161852595,286.5661303942195,0,9.159901392705136,224.9980940924433,11.030866352095368,19.21781972061753,-0.015824789661280984,-0.023457637965691946,2.2435774674489064,3.3118842686743237,-0.07955108013178509,-0.11731671551445749,-5.390619645472533,14.665661887722806,275476676227.2784,0.0,515043842327.5246,0.3340310005136204,0.6204005838526306,0.3298447113553093,-0.6282745201280389,-0.07955108013178509,-0.11731671551445749,-5.390619645472533
23.8,-67.29105786695602,33.47741359143618,276.81562460289035,286.83743429670125,0,9.148306213142776,224.99433309597197,11.030796093849277,19.22718748676301,-0.015904667045560702,-0.023460325871695553,2.8103298436439728,2.6424478945655703,-0.0007987738427971705,-2.68790600360665e-05,5.667523761950583,5.661546602405922,275476676227.2784,0.0,515043842327.5246,0.3328974935267729,0.621570368444171,0.32955701364818135,-0.6278707754236234,-0.0007987738427971705,-2.68790600360665e-05,5.667523761950583
24.0,-67.29265654632174,33.47506695179207,277.3509620044733,287.3542027834202,0,9.124435981147034,224.98081213686774,11.03066225949888,19.245032066815778,-0.007993396828567284,-0.011733198220547122,2.676687007914618,2.762719020229617,0.03955635108496723,0.05863563825574236,-0.6682141786467756,3.084115597494229,275476676227.2784,0.0,515043842327.5246,0.3313962874721466,0.6234447613493156,0.3296432085980221,-0.6267603092259226,0.03955635108496723,0.05863563825574236,-0.6682141786467756
24.1,-67.29426316309288,33.47272013683413,277.6208081052008,287.614766555904,0,9.11231926788499,224.9710527751641,11.0305947979737,19.254026936840027,-0.016066167711414663,-0.023468149579457198,2.698461007275303,2.860780732628997,-0.08072770882847263,-0.11734951358909909,0.21773999360684607,3.306103983074319,275476676227.2784,0.0,515043842327.5246,0.33154403590068116,0.622175059378456,0.32806810323285246,-0.6287671010694668,-0.08072770882847263,-0.11734951358909909,0.21773999360684607
24.3,-67.29587714183602,33.470372858313716,278.29760828932797,288.2682079576655,0,9.089057586037809,224.94553845617358,11.030425597927668,19.2765869429776,-0.008069893715685368,-0.0117363926020531,3.384000920635811,2.958699778885414,0.03998136997864661,0.0586587848870207,3.427699566802552,2.7388999925713144,275476676227.2784,0.0,515043842327.5246,0.3298642977069383,0.6244975546801486,0.3284788355932694,-0.6271315682248129,0.03998136997864661,0.0586587848870207,3.427699566802552
24.4,-67.29749971694082,33.46802547798935,278.57099984343995,288.5322584241159,0,9.07657999510314,224.9297846328522,11.03035725003914,19.285699994781332,-0.016225751048040485,-0.023473803243661495,2.7339155411198717,3.0448485763277384,-0.0815585733235529,-0.11737410641608645,-6.500853795159532,2.9554824041577623,275476676227.2784,0.0,515043842327.5246,0.3301109799947818,0.6229441463042227,0.32668335568225987,-0.6294801955521444,-0.0815585733235529,-0.11737410641608645,-6.500853795159532
24.6,-67.29912958262086,33.46567811762552,279.2310072564529,289.1696385651581,0,9.052371332556314,224.8922871593628,11.030192248185886,19.307700241881765,-0.008149328400221973,-0.011736801819139775,3.3000370650648376,3.094166139436559,0.040382113239091987,0.05868500712260777,2.8306076197247894,3.074568497046285,12540125770.456451,0.0,3489355874.2082987,0.3284518760678411,0.6252076805529487,0.3270328140979032,-0.6279205839820223,0.040382113239091987,0.05868500712260777,2.8306076197247894
24.71,-67.30076776291442,33.46333041899158,279.57281681961564,289.4998233655121,0,9.03862899354893,224.8682612775204,11.030106795795096,19.319093893987187,-0.0148925481232193,-0.02134271485400333,3.107359665115584,2.748384965359138,-0.0613019974817942,-0.08732648213512367,-1.7516127268114043,3.678979091604235,6804541126.028387,0.0,256968923008.83423,0.32838312399144054,0.6243142422944713,0.3256443435395747,-0.6295649388796853,-0.0613019974817942,-0.08732648213512367,-1.7516127268114043
24.9,-67.30241376168516,33.4609827938606,280.13239722650997,290.0403631282227,0,9.014231019021729,224.82107954624416,11.029966900693372,19.337746574217,-0.008663151424951027,-0.012355921742001154,2.945160036285965,3.413566689839873,0.03278629841193867,0.047298911115801485,-0.8536822569980063,11.188225420188907,199306206273.15338,0.0,-254543673066.49078,0.327145672813001,0.6257035914204228,0.3254737436438335,-0.6289177741499932,0.03278629841193867,0.047298911115801485,-0.8536822569980063
25.1,-67.30406762262304,33.458634894008206,280.4634097730513,290.3601935339065,0,8.985495933958338,224.76364584287256,11.029884147556738,19.348780325768374,-0.008269304689392125,-0.01173949926197776,1.65506273270663,3.314467209750344,0.0019692336777944806,0.0030821124001169284,-6.450486517896582,13.877327530110318,406247551978.79846,0.0,-1797488493.8551269,0.3270342157884923,0.6249404220048838,0.32420912703770755,-0.6303860187166362,0.0019692336777944806,0.0030821124001169284,-6.450486517896582
25.2,-67.30572882924514,33.45628735121146,281.0694002574889,290.945685751941,0,8.975355301623052,224.7319440989134,11.029732649935628,19.368980008582962,-0.016612066221029308,-0.023475427967483642,6.059904844376107,3.37814710693858,-0.0834276153163736,-0.11735928705506132,44.048421116695714,14.769117738726658,406247551978.79846,0.0,-1797488493.8551269,0.32571688713783664,0.6265284277819752,0.3241747950366486,-0.6295088092133666,-0.0834276153163736,-0.11735928705506132,44.048421116695714
25.4,-67.30739831489636,33.4539398872477,281.6303069804064,291.4877043234888,0,8.94821553070147,224.66257787119167,11.029592423254899,19.38767689934688,-0.008347428256101382,-0.011737319818792044,2.8045336145874087,3.077508955938599,0.041323189824639776,0.0586905407434582,-16.27685614894355,16.581857117656984,406247551978.79846,0.0,-1797488493.8551269,0.3250362826434447,0.6267880279821686,0.3233713170146144,-0.63001521749541,0.041323189824639776,0.0586905407434582,-16.27685614894355
25.5,-67.30907543275025,33.451592283893426,281.9728816447214,291.81882503527345,0,8.935096251230048,224.6249164703611,11.02950677958882,19.39909605482405,-0.016771178538874425,-0.023476033542734975,3.4257466431500427,3.966415206559419,-0.08423750282772924,-0.11738713723942765,6.212130285626253,24.60710885258484,406247551978.79846,0.0,-1797488493.8551269,0.3248956242120743,0.6260951258071162,0.3221709088224783,-0.6313902377428053,-0.08423750282772924,-0.11738713723942765,6.212130285626253
25.7,-67.31076063580991,33.449244862923116,282.2612687556854,292.0976109433974,0,8.904557128310831,224.54364546385537,11.029434682811079,19.408708958522848,-0.008426015298326235,-0.011737104851548039,1.4419355548201958,3.326488702793496,0.0417258162027411,0.05869464345593489,-9.91905544164927,18.88244015993683,406247551978.79846,0.0,-1797488493.8551269,0.3244218449746566,0.6259623316717049,0.321187369404169,-0.632266003804247,0.0417258162027411,0.05869464345593489,-9.91905544164927
25.8,-67.31245301690872,33.44689802610812,282.8712275208833,292.68719254161726,0,8.893782090320075,224.50003947021156,11.029282193119778,19.429040917362776,-0.01692381098806071,-0.02346836814993447,6.099587651978508,3.398543458652391,-0.08497795689734354,-0.11731263298386266,46.57652097158246,16.304662870095484,406247551978.79846,0.0,-1797488493.8551269,0.32290064261289103,0.6279712566734766,0.32137256119927265,-0.6309571718431737,-0.08497795689734354,-0.11731263298386266,46.57652097158246
26.01,-67.31415311871118,33.44455149521553,283.47189205023255,293.26787552908706,0,8.864007371422817,224.40203165560322,11.029132026987442,19.449063068341083,-0.008095722868837269,-0.011173956631404506,2.860307282615578,3.347294277113666,0.042038514853444786,0.05854481675490436,-15.42514461601389,15.073437737531384,406247551978.79846,0.0,-1797488493.8551269,0.32221208184711525,0.6283026393882629,0.32066143980034867,-0.6313409607135101,0.042038514853444786,0.05854481675490436,-15.42514461601389
26.1,-67.31586126371376,33.44220491200695,283.7567132559826,293.5433163348983,0,8.851380837055933,224.3573630475999,11.029060821686004,19.45855710853275,-0.018979388917570235,-0.026073146761973517,3.164680063889596,3.630360104829509,-0.12092962276369981,-0.16554655700632262,3.3819197919335364,13.402100432546984,3499674959.6884933,0.0,242055594455.46063,0.3223641173421703,0.6269632403356,0.31909582724354285,-0.6333848152220316,-0.12092962276369981,-0.16554655700632262,3.3819197919335364
26.2,-67.31757684424565,33.4398588282375,284.07366215271367,293.84983552741267,0,8.837259906350814,224.30585847190287,11.028981584461821,19.469122071757123,-0.017155805318936155,-0.02346083769452939,3.169488967310553,3.041860020619673,0.018235835986341188,0.026123090674441827,0.04808903420956959,4.686903982558545,3499674959.6884933,0.0,242055594455.46063,0.3215143870572795,0.6276322278352999,0.3185796107608748,-0.6334140171366036,0.018235835986341188,0.026123090674441827,0.04808903420956959
26.4,-67.31930020246972,33.43751349565453,284.6451221573353,294.4024474363056,0,8.80809645155065,224.19694427119282,11.028838719460666,19.488170738577843,-0.00861679112034611,-0.011726662914846073,2.8573000231082903,3.06362536004909,0.042695070992950376,0.0586708738984168,-1.560944721011318,1.7902940993089846,3499674959.6884933,0.0,242055594455.46063,0.32013415024626196,0.6292903065354181,0.31850787292239935,-0.6325034156691268,0.042695070992950376,0.0586708738984168,-1.560944721011318
26.5,-67.32103072038325,33.435168215996576,284.9608242890851,294.70782655097844,0,8.793669325470615,224.13953948679304,11.028759793927728,19.498694142969505,-0.01730517913529159,-0.023452796579519153,3.157021317497834,2.7219676021880317,-0.08688388014945357,-0.11726133664672914,2.997212943895395,2.6253176436476795,3499674959.6884933,0.0,242055594455.46063,0.32016173784521507,0.6282959761726261,0.3172195865536555,-0.634123301773359,-0.08688388014945357,-0.11726133664672914,2.997212943895395
26.7,-67.32276900981878,33.43282380099218,285.55465056952715,295.2821826598116,0,8.764157845355884,224.018847306362,11.028611337357617,19.518488352317572,-0.008691447177682252,-0.011722075021971576,2.969131402210234,3.2597016820762548,0.043068659788046845,0.058653607787738093,-0.939449576438004,11.417303995525199,3499674959.6884933,0.0,242055594455.46063,0.31874248529005356,0.6300314365983426,0.31717977282934456,-0.6331355373669006,0.043068659788046845,0.058653607787738093,-0.939449576438004
26.9,-67.324514892445,33.43047953235877,285.84594702254924,295.5640246993611,0,8.731257634545745,223.89032966901024,11.028538513244362,19.528198234084975,-0.008729413131050055,-0.01172134316707489,1.4564822651104288,3.270270742041975,-0.0001898297668390121,3.659274483425192e-06,-7.563245685499053,17.0011473839618,3499674959.6884933,0.0,242055594455.46063,0.318881372920762,0.6287432508063698,0.31569766926450227,-0.6350839127159253,-0.0001898297668390121,3.659274483425192e-06,-7.563245685499053
27.0,-67.32626836976753,33.42813629180146,286.4317689743622,296.1307565693297,0,8.719077450211282,223.82314338951878,11.02839205775641,19.54772563247874,-0.01753477322537808,-0.02343240557308912,5.858219518129802,3.222655683479271,-0.088053600943279,-0.11711062406014064,44.01737253019311,16.418180828658915,3499674959.6884933,0.0,242055594455.46063,0.31735919759528464,0.6307032286243296,0.31577767797964257,-0.6338620001185657,-0.088053600943279,-0.11711062406014064,44.01737253019311
27.1,-67.32802909312984,33.425793261012,286.7227724534966,296.4123738984472,0,8.703863605886283,223.75400942197925,11.028319306886626,19.557425748449887,-0.01760723362309566,-0.023430307894613756,2.910034791343564,3.2108911598115952,-0.0007246039771757648,2.097678475365653e-05,-29.481847267861962,16.264064483537563,3499674959.6884933,0.0,242055594455.46063,0.31751680290064127,0.6294108130592412,0.31433501580461964,-0.6357818856486632,-0.0007246039771757648,2.097678475365653e-05,-29.481847267861962
27.3,-67.32979745371408,33.42345133166757,287.3065811908001,296.9772723957581,0,8.673204767092841,223.60991079962054,11.0281733547023,19.57688603969334,-0.008841802921182338,-0.011709646722124531,2.9190436865175786,3.4958442098097713,0.04382715350956676,0.05860330586244633,0.045044475870073146,14.783838761853866,3499674959.6884933,0.0,242055594455.46063,0.31599149943622773,0.6313753939302743,0.3144071273314117,-0.6345570443282817,0.04382715350956676,0.05860330586244633,0.045044475870073146
27.4,-67.33157284254186,33.421109705429664,287.5976008194355,297.25896331732076,0,8.65774556599126,223.5349525491609,11.02810059979514,19.586586693981186,-0.017753888277809816,-0.02341626237907285,2.9101962863541697,2.903467798709676,-0.08912085356627668,-0.11706615656948569,-0.08847400163409092,5.9954053518278725,3499674959.6884933,0.0,242055594455.46063,0.31616055939781484,0.630073301810531,0.31298424165232996,-0.6364675950149797,-0.08912085356627668,-0.11706615656948569,-0.08847400163409092
27.6,-67.33335608047523,33.41876919394295,288.1738574748772,297.8166669403325,0,8.626536653598883,223.37923482686017,11.027956535631281,19.605795249162572,-0.008916189666834258,-0.011702557433572569,2.88128327720837,2.8926174427364724,0.04418849305487716,0.05856852472750057,-0.14456504572899725,0.18543020950209121,9293700487.15,0.0,122465918019.4753,0.3146308456337848,0.6320286314580453,0.31302840397638265,-0.6352640854770858,0.04418849305487716,0.05856852472750057,-0.14456504572899725
27.8,-67.33514669821746,33.41642920883414,288.75313209490827,298.3773634452839,0,8.595060011551368,223.2158053548394,11.027811716976272,19.625104403163608,-0.008953088711152222,-0.011699925544057563,2.8963731001553685,2.889139935485832,-0.0001844952215898216,1.3159447575031339e-05,0.07544911473499365,0.25977301954788656,19238342733.05,0.0,246468817459.8003,0.31396042177126315,0.6323632694871556,0.31236751476794256,-0.6355879834314245,-0.0001844952215898216,1.3159447575031339e-05,0.07544911473499365
27.9,-67.33694383631394,33.41408993171081,289.0387099196172,298.6538820159148,0,8.579174033712953,223.13120773855115,11.027740322520096,19.63462366398724,-0.017971380964781174,-0.023392771233262055,2.8557782470892943,2.8772571411577337,-0.09018292253629144,-0.11692845689204742,-0.4059485306607511,0.27818999450822074,19238342733.05,0.0,246468817459.8003,0.3141722569746844,0.6309908607286305,0.3109437467270938,-0.6375424009394918,-0.09018292253629144,-0.11692845689204742,-0.4059485306607511
28.0,-67.33874798515302,33.411751584160335,289.3288641913941,298.93484871859914,0,8.56326494222575,223.0446931867965,11.02766778395215,19.64429547304647,-0.01804148839084948,-0.023383475504772044,2.9015427177688067,2.582674635394526,-0.0007010742606830445,9.295728490010681e-05,0.45764470679511743,1.6883283852644884,19238342733.05,0.0,246468817459.8003,0.3134875304653164,0.631361054954745,0.31031282152660716,-0.6378203033185638,-0.0007010742606830445,9.295728490010681e-05,0.45764470679511743
28.2,-67.34056014496697,33.40941411774867,289.89904265492737,299.48688606443613,0,8.531146354983381,222.8659287422218,11.027525239336267,19.663301421830912,-0.009060799069757796,-0.01168733205833665,2.850892317666488,3.1086006105118758,0.04490344660545857,0.05848071723217718,-0.25325200051159324,9.908552828569137,19238342733.05,0.0,246468817459.8003,0.31197181000046725,0.6333123201192475,0.31035773782574816,-0.6366059766620891,0.04490344660545857,0.05848071723217718,-0.25325200051159324
28.4,-67.34237850583274,33.40707766401926,290.1807087571993,299.75969127903636,0,8.495889790185657,222.67954380099016,11.0274548228107,19.672690291906644,-0.009091804328846853,-0.011682268647028635,1.4083305113595708,3.0465459744247427,-0.00015502629544528245,2.531705654007519e-05,-7.212809031534613,12.802542051415696,19238342733.05,0.0,246468817459.8003,0.3122015182513358,0.631903888506788,0.3089371499189931,-0.6385808680907151,-0.00015502629544528245,2.531705654007519e-05,-7.212809031534613
28.5,-67.34420477767286,33.40474193449192,290.73330484748254,300.2948105585349,0,8.482289073159915,222.58350394593364,11.027316673788128,19.69111016158275,-0.018262718401160522,-0.023357295273384815,5.525960902832516,2.9352944500838603,-0.0917091407231354,-0.11675026626356014,41.17630391472886,13.112848466176198,19238342733.05,0.0,246468817459.8003,0.3106871147334318,0.6338935977109448,0.30902460009551785,-0.6373038679119212,-0.0917091407231354,-0.11675026626356014,41.17630391472886
28.7,-67.34603786025643,33.40240704066167,291.2424276773347,300.787900838735,0,8.448956378632584,222.3857508088605,11.027189393080667,19.708080922577825,-0.009165412917866466,-0.0116744691512594,2.5456141492608797,2.808259386335733,0.04548652741647044,0.05841413061062728,-14.901733767858234,13.319478165585457,19238342733.05,0.0,246468817459.8003,0.3101274686946299,0.6340510607766635,0.30832451312954245,-0.6377587318825824,0.04548652741647044,0.05841413061062728,-14.901733767858234
28.8,-67.34787693319993,33.40007371399756,291.47695240059505,301.01514120098454,0,8.432008223328172,222.28404631583962,11.027130761899851,19.715898413353166,-0.018390729434969184,-0.023333266641145323,2.3452472326033225,2.933247813140148,-0.09225316517102586,-0.11658797489885757,-2.003669166575544,12.059780117633562,19238342733.05,0.0,246468817459.8003,0.31056782507467856,0.632160651811291,0.30665846965589594,-0.640219586796758,-0.09225316517102586,-0.11658797489885757,-2.003669166575544
28.9,-67.34972278596804,33.39774157594163,291.69850797337904,301.22983560002086,0,8.414878653080097,222.1804625388317,11.027075373006655,19.723283599112634,-0.01845852768113371,-0.02332138055926741,2.215555727839889,2.0215880256002516,-0.0006779824616452856,0.00011886081877913572,-1.2969150476343627,4.890134963673125,19238342733.05,0.0,246468817459.8003,0.31003106352235205,0.6322305351296237,0.30589704665410017,-0.6407747552371333,-0.0006779824616452856,0.00011886081877913572,-1.2969150476343627
29.1,-67.35157595787469,33.39540972790769,292.1051671540734,301.62380020981993,0,8.380107565583263,221.96767563099903,11.02697370821148,19.736838905135777,-0.009265859533229427,-0.011659240169698937,2.0332959034717812,2.234998762942161,0.04596334073952076,0.058310701947841534,-0.9112991218405256,7.199757986497772,587802628713.3625,0.0,660613963397.6753,0.3084618463247864,0.6344862634332127,0.30621081043872717,-0.6391505381730674,0.04596334073952076,0.058310701947841534,-0.9112991218405256
29.3,-67.35343499808384,33.39307990128025,292.2986925033311,301.81137922631626,0,8.34302152353511,221.74742791358565,11.026925326874167,19.74328975011104,-0.00929520104577367,-0.011649133137190446,0.9676267462884914,2.131275174524343,-0.0001467075627212185,5.053516254245622e-05,-5.328345785916468,8.583816176832965,587802628713.3625,0.0,660613963397.6753,0.30906575851241247,0.6321992045593127,0.30434226723776836,-0.6420111424596106,-0.0001467075627212185,5.053516254245622e-05,-5.328345785916468
29.4,-67.35530114561041,33.390750487413335,292.659951284066,302.1614235737587,0,8.3270594822842,221.63451843546756,11.026835012178983,19.755331709468866,-0.018661475265702564,-0.023294138669172567,3.612587807348936,2.100833499670961,-0.09366274219929094,-0.11645005531982369,26.44961061060501,8.798525919414768,587802628713.3625,0.0,660613963397.6753,0.3073543780033318,0.6347838483302661,0.3048254888414055,-0.6400501336409525,-0.09366274219929094,-0.11645005531982369,26.44961061060501
29.6,-67.3571732593212,33.38842215762938,293.0253025614475,302.5154598774915,0,8.291445561402941,221.40315333108774,11.026743674359638,19.767510085381584,-0.00936056855394427,-0.011641648919784421,1.8267563869076493,1.8599287961076136,0.04650453355879081,0.0582624487469399,-8.929157102206307,9.850391015337914,587802628713.3625,0.0,660613963397.6753,0.30677001307215396,0.6350828065362643,0.3042716837619068,-0.6402973765231486,0.04650453355879081,0.0582624487469399,-8.929157102206307
29.7,-67.3590517179358,33.38609648321809,293.23163560289436,302.71548590231544,0,8.273820013931235,221.28470798768143,11.026692091099276,19.77438785342981,-0.01878458614598384,-0.023256744112885527,2.06333041446844,2.3852904247942774,-0.0942401759203977,-0.11615095193101353,2.365740275607959,14.316269036828022,587802628713.3625,0.0,660613963397.6753,0.30701844748980783,0.6333941460979612,0.30260230576357483,-0.6426378242341099,-0.0942401759203977,-0.11615095193101353,2.365740275607959
29.9,-67.36093665002745,33.38377249543532,293.39737397806874,302.87619766106206,0,8.235999163953377,221.04231803929207,11.026650656505483,19.779912465935624,-0.00942466045827931,-0.01161993891383166,0.8286918758719283,2.054182246640667,0.04679962843852281,0.05818402599526954,-6.173192692982581,10.663642891848124,587802628713.3625,0.0,660613963397.6753,0.3069013960963827,0.6325551289444803,0.3014104942523063,-0.6440786100117777,0.04679962843852281,0.05818402599526954,-6.173192692982581
30.0,-67.36282736402404,33.381448695501945,293.7568164588709,303.2245683376209,0,8.219808180708444,220.91838420715567,11.026560795885281,19.791893881962363,-0.01890713996587552,-0.0232379993337869,3.5944248080215346,2.021892035554061,-0.09482479507596074,-0.11618060419955076,27.65732932149567,9.462553496370743,587802628713.3625,0.0,660613963397.6753,0.3049400609065059,0.6359100454066402,0.30240910261251625,-0.6412321795280973,-0.09482479507596074,-0.11618060419955076,27.65732932149567
30.2,-67.36472399820894,33.3791266546027,294.1482390194317,303.6039503264271,0,8.184068900255577,220.6650663675043,11.02646294024514,19.804941300647723,-0.009483170924511375,-0.011610204496221896,1.9571128028039266,1.936091703881258,0.04711984520682089,0.058138974187825224,-8.186560026088069,9.050114153405081,587802628713.3625,0.0,660613963397.6753,0.30422827847055656,0.6364137652059574,0.30190690368656786,-0.6413071772104281,0.04711984520682089,0.058138974187825224,-8.186560026088069
30.3,-67.366627510722,33.37680783388509,294.31474863610697,303.76544416388657,0,8.165869863734368,220.53569361851822,11.026421312840974,19.810491621203564,-0.01903512513052847,-0.023188207176118806,1.6650961667528226,2.0434995199464363,-0.09551954206016959,-0.11578002679896746,-2.9201663605109993,8.08429008081592,587802628713.3625,0.0,660613963397.6753,0.304996057994896,0.6334527673671263,0.29955036274608937,-0.6449686630381275,-0.09551954206016959,-0.11578002679896746,-2.9201663605109993
30.4,-67.36853730956035,33.37449087445823,294.4781755874701,303.9239581831018,0,8.147617728507905,220.40451928982168,11.026380456103132,19.815939186249004,-0.019097988383549997,-0.023169594268566622,1.6342695136313872,1.4444827168157317,-0.0006286325302152849,0.0001861290755218429,-0.30826653121436054,4.0871834796899424,587802628713.3625,0.0,660613963397.6753,0.3044003223252421,0.6336390579369515,0.29885902008635035,-0.6453876928932623,-0.0006286325302152849,0.0001861290755218429,-0.30826653121436054
30.6,-67.37045239257951,33.37217448739175,294.7513322543057,304.18880280392614,0,8.110517626063595,220.13678929290208,11.026312166936423,19.825044408476856,-0.009575415095781501,-0.011581935332394102,1.3657833341778576,1.1654419429402407,0.0476128664388418,0.05793829468086178,-1.3424308972676289,2.4880351023485145,587802628713.3625,0.0,660613963397.6753,0.30282199936284154,0.6362339054985182,0.2995083965011298,-0.6432728617167957,0.0476128664388418,0.05793829468086178,-1.3424308972676289
30.7,-67.37237466749413,33.36986129371465,294.81120331960204,304.24698866850053,0,8.091175055477708,220.00024552374597,11.026297199170099,19.827040110653403,-0.019222749146195338,-0.02313193677103747,0.5987106529636449,0.843776460999654,-0.09647334050414043,-0.11550001438643613,-7.6707268121422905,2.410000335014868,587802628713.3625,0.0,660613963397.6753,0.30780634551241154,0.6238766037318033,0.292731661758313,-0.656004124364002,-0.09647334050414043,-0.11550001438643613,-7.6707268121422905
30.91,-67.37430219187905,33.36754986441417,294.92917786854395,304.3614790639775,0,8.050433925457158,219.70772426727808,11.026267705532863,19.83097259561813,-0.009178687547262107,-0.011006806192746027,0.561783566390007,0.564676182477193,0.04782886475682471,0.05773871703948282,-0.1758432693982748,2.7138368371144574,587802628713.3625,0.0,660613963397.6753,0.30361317069692756,0.6321807189510045,0.29596644717061177,-0.6485140270766354,0.04782886475682471,0.05773871703948282,-0.1758432693982748
31.11,-67.3762369531702,33.36524111043467,294.9401807885052,304.37231619167227,0,8.010577571516478,219.42189622015724,11.026264954802873,19.83133935961684,-0.009673806455765578,-0.011543769897528519,0.055014599806213677,0.34203604816927063,-0.0024755945425173655,-0.002684818523912472,-2.5338448329189758,2.4754186643826133,10.321915532391559,0.0,0.28621704284483435,0.33621199520990447,0.5496922426623193,0.25653960399320413,-0.7204077763439642,-0.0024755945425173655,-0.002684818523912472,-2.5338448329189758
31.21,-67.37817624866554,33.36293449267652,294.9638944690409,304.39547150524817,0,7.990821341109457,219.27635088452203,11.02625902638274,19.832129815634694,-0.01939295495333199,-0.023066177581440812,0.23713680535706436,0.2817917441757772,-0.09719148497566274,-0.1152240768391213,1.8212220555084808,0.991863120709904,9.374375947005804,0.0,0.2823383419965245,0.3167841652741768,0.5992363580293453,0.27907498761025373,-0.6802063886333368,-0.09719148497566274,-0.1152240768391213,1.8212220555084808
31.3,-67.38012319552595,33.36063057199496,294.9864334018795,304.41749057037913,0,7.973049121891111,219.1438674006834,11.02625339164953,19.832881113395985,-0.02163274289349226,-0.025599118684027686,0.25043258709539906,0.23345160752364533,-0.024886532668447474,-0.028143790028743083,0.14773090820371917,1.0053452053171783,9.374375947005804,0.0,0.2823383419965245,0.316849863248716,0.5973249370628704,0.27727057315461884,-0.6825907360817441,-0.024886532668447474,-0.028143790028743083,0.14773090820371917
31.5,-67.38207382077626,33.358329079198995,295.04600588091466,304.4753973273135,0,7.933645564074849,218.8444214991993,11.026238498529771,19.834866862697154,-0.009753126251510515,-0.011507463979825203,0.2978623951759129,0.39900976082637374,0.059398083209908935,0.07045827352101267,0.23714904040257,1.0646396934218982,9.374375947005804,0.0,0.2823383419965245,0.3046778887481972,0.6251563585039124,0.28963858460443415,-0.6576172152844001,0.059398083209908935,0.07045827352101267,0.23714904040257
31.6,-67.38403260130613,33.356029935050245,295.077889702197,304.50647542169577,0,7.913966283155863,218.6921055835275,11.02623052757445,19.8359296567399,-0.01958780529875498,-0.0229914414875051,0.3188382128234889,0.3734694152467418,-0.09834679047244324,-0.11483977507679734,0.20975817647575704,1.6941625422767281,9.374375947005804,0.0,0.2823383419965245,0.3100943254698505,0.6109508583755051,0.28210683843069617,-0.6715625731622251,-0.09834679047244324,-0.11483977507679734,0.20975817647575704
31.8,-67.38599559387103,33.35373334026186,295.2548298639261,304.6781227588985,0,7.87575248962879,218.38232166987942,11.026186292534017,19.841827662130868,-0.009814962824492603,-0.011482973941916483,0.8847008086453942,0.357479986567648,0.048864212371312055,0.05754233772794329,2.829312979109537,2.2252095739570428,9.374375947005804,0.0,0.2823383419965245,0.2984299530778675,0.636705049073738,0.29337784079871304,-0.6476694265736463,0.048864212371312055,0.05754233772794329,2.829312979109537
32.0,-67.38796426509323,33.3514402254974,295.23276746644075,304.65692718006903,0,7.835579387809247,218.06571433346755,11.02619180813339,19.84109224888136,-0.009843356111005654,-0.011465573822313542,-0.11031198742671261,0.31099616443987743,-0.00014196643256525528,8.700059801470605e-05,-4.975063980360552,2.6313055985272547,9.374375947005804,0.0,0.2823383419965245,0.31461169498375546,-0.597341035614995,-0.2744522242350504,-0.6847475046776639,-0.00014196643256525528,8.700059801470605e-05,-4.975063980360552
32.1,-67.38994133146268,33.34914842136968,295.24977201221134,304.6735921709515,0,7.815789707880017,217.90486942364905,11.026187556996947,19.84165906707371,-0.01977066369448693,-0.022918041277221975,0.17004545770589388,0.25828114153022613,-0.09927307583481136,-0.1145246745490827,2.8035744513260252,2.688520101702831,9.374375947005804,0.0,0.2823383419965245,0.31920759525453735,0.5838429867874606,0.26740716069291204,-0.6969413808356248,-0.09927307583481136,-0.1145246745490827,2.8035744513260252
32.2,-67.39192384933803,33.34685916843968,295.24392750582984,304.6681163915621,0,7.795785208116568,217.74233985920674,11.026189018123542,19.841464250194328,-0.019825178753478386,-0.022892529299980098,-0.058445063814928366,0.1383543592848256,-0.0005451505899145482,0.0002551197724187623,-2.28490521520819,2.4799059724613186,9.374375947005804,0.0,0.2823383419965245,0.3550482773337913,-0.47259992490412595,-0.21590977005297746,-0.7771570001863152,-0.0005451505899145482,0.0002551197724187623,-2.28490521520819
32.41,-67.39391115494755,33.34457331721545,295.25544075400126,304.67946292014443,0,7.754066994823455,217.39557644805382,11.0261861398115,19.841848025133373,-0.009463360045323497,-0.01088500582966422,0.05482499129243642,0.2514932934264118,0.049341993848358086,0.05717868319198207,0.5393812147969913,2.2686368002695163,9.374375947005804,0.0,0.2823383419965245,0.3284016392469659,0.5555963484552188,0.2531793252685981,-0.7206700286397861,0.049341993848358086,0.05717868319198207,0.5393812147969913
32.6,-67.39590600439011,33.342289258150956,295.20133846553375,304.62722568898766,0,7.715751672871702,217.07552064172225,11.026199665383617,19.84004461551779,-0.010499207592461153,-0.012021363497332583,-0.2847488866710687,0.22307760636280097,-0.005451829195461208,-0.005980829829833335,-1.7872309366499812,3.0516589135371746,9.374375947005804,0.0,0.2823383419965245,0.30055672193689553,-0.6255067096910607,-0.2841816582600199,-0.6615495432230273,-0.005451829195461208,-0.005980829829833335,-1.7872309366499812
32.7,-67.39790546363619,33.340008561645,295.1337027513293,304.5618760309402,0,7.6952274989805325,216.90467764296184,11.026216574312167,19.837790091710975,-0.019994592460789988,-0.02280696505955827,-0.6763571420446982,0.2458823419407044,-0.094953848683287,-0.10785601562225533,-3.91608255373624,2.7704621976009727,9.374375947005804,0.0,0.2823383419965245,0.29834679777936457,-0.6294624194268154,-0.28526757887618304,-0.6583226102954838,-0.094953848683287,-0.10785601562225533,-3.91608255373624
32.8,-67.39991258852876,33.33772974804008,295.13329482437376,304.56167545439035,0,7.675401213701284,216.732194442381,11.026216676293906,19.837776494145793,-0.02007124892571824,-0.022788136049173475,-0.004079269555177466,0.2677317559787494,-0.0007665646492825784,0.00018829010384796246,6.72277872489559,3.0059801723133552,9.374375947005804,0.0,0.2823383419965245,0.41081306403842016,-0.06079948571982878,-0.02746937518486428,-0.9092752511635419,-0.0007665646492825784,0.00018829010384796246,6.72277872489559
33.0,-67.40192504478439,33.33545567762132,295.0974534997271,304.5271402798131,0,7.635483146710776,216.38233817188154,11.026225636625067,19.836581783324235,-0.010062281278137988,-0.01137035209382004,-0.17920662323319647,0.24084305343414997,0.05004483823790056,0.05708891977676636,-0.8756367683900826,2.6950096139778896,9.374375947005804,0.0,0.2823383419965245,0.3023890987368726,-0.6169169594065512,-0.2778524439902327,-0.6713957979689269,0.05004483823790056,0.05708891977676636,-0.8756367683900826
33.2,-67.40394420799403,33.333183070615306,295.1305014945133,304.5593631803436,0,7.596380165263412,216.02601402597276,11.026217374626372,19.837683383150445,-0.010095816048192175,-0.011363035030065144,0.1652399739307929,0.162937847295665,-0.000167673850270933,3.6585318774484155e-05,1.7222329858199226,2.0515414254274527,9.374375947005804,0.0,0.2823383419965245,0.3027242486697241,0.6147662262132739,0.27615528227362224,-0.6739130332967428,-0.000167673850270933,3.6585318774484155e-05,1.7222329858199226
33.3,-67.4059689736242,33.33091611718902,295.14526712790916,304.5738717133975,0,7.576863344193286,215.8454462506239,11.026213683218023,19.838175570930304,-0.020247656301678504,-0.022669534262861512,0.14765633395882943,0.22166508241888877,-0.10151840253486907,-0.11306499232797011,-0.17583639971964465,0.776215986699482,9.374375947005804,0.0,0.2823383419965245,0.31668973208678647,0.5766734351602097,0.25813883014470307,-0.7074741741878972,-0.10151840253486907,-0.11306499232797011,-0.17583639971964465
33.5,-67.40799956701785,33.32864969744874,295.20268872113536,304.6297174020779,0,7.538222943864554,215.4795394208042,11.026199327819716,19.840089624037844,-0.010152966968277466,-0.011332098701401899,0.28710796613097095,0.3419884986733229,0.05047344666700447,0.05668717780729726,0.6972581608606977,3.0534184905503197,9.374375947005804,0.0,0.2823383419965245,0.29593546616986327,0.6283036939011988,0.28066782214668634,-0.6624818802838086,0.05047344666700447,0.05668717780729726,0.6972581608606977
33.61,-67.41003580339533,33.326389291438886,295.23822909744433,304.6643613401715,0,7.517079859648817,215.27559793865814,11.026190442725639,19.841274303248145,-0.0185112397952543,-0.020549145544118286,0.32309433008157035,0.46034289234305614,-0.0759842984270625,-0.08379133493378578,0.32714876318726893,4.24737360305969,9.374375947005804,0.0,0.2823383419965245,0.29954153644762777,0.6178450029823601,0.27499573215033607,-0.6729931407759091,-0.0759842984270625,-0.08379133493378578,0.32714876318726893
33.7,-67.41207770785552,33.32412863914098,295.1679631821102,304.59647446995103,0,7.498826588273335,215.10732521075317,11.026208009204472,19.83893210607034,-0.022687827335389706,-0.025118358865621967,-0.7807323926012898,0.5406857232752583,-0.04640652822372499,-0.050769036905594526,-12.264741363142427,5.510706985273989,-174170892300592.3,0.0,-67148169546.420006,0.2932532916173577,-0.6320492911880982,-0.2808151016873676,-0.6600447553980874,-0.04640652822372499,-0.050769036905594526,-12.264741363142427
33.9,-67.4141253753766,33.32187485047247,295.31947450241734,304.7435047118502,0,7.4614737364549,214.72886979090566,11.026170131374395,19.84398248341391,-0.010238337605415145,-0.011268943342557475,0.7575566015356278,0.7260199663391667,0.06224744864987413,0.06924707761532393,7.691444970684752,6.693868946893038,-87211681923689.03,0.0,-214199751270.62033,0.28902005692063687,0.6400869451654118,0.2832696895656992,-0.6530806935591922,0.06224744864987413,0.06924707761532393,7.691444970684752
34.1,-67.41617858081716,33.31962037528572,295.20902328764936,304.63667813781336,0,7.421697941132948,214.3442404412284,11.026197744178088,19.840300776254978,-0.010266027202803084,-0.01127237593372838,-0.5522560738398773,0.7852549756447947,-0.00013844798693969106,-1.716295585452488e-05,-6.549063376877432,8.458764689915565,-87211681923689.03,0.0,-214199751270.62033,0.2896900765297925,-0.6377997912992813,-0.2818027540649752,-0.6556510455876291,-0.00013844798693969106,-1.716295585452488e-05,-6.549063376877432
34.2,-67.41823848891734,33.317372533366836,295.08764336907757,304.5192661599453,0,7.401227093044527,214.14963186814148,11.02622808915773,19.836254778969252,-0.020599081001790573,-0.022478419188871293,-1.2137991857178858,1.1382273016710196,-0.10333053798987342,-0.11206043255142753,-6.615431118779991,12.338667278736592,-87211681923689.03,0.0,-214199751270.62033,0.28832723791063236,-0.6390498456431065,-0.2811757065566194,-0.6553036858623131,-0.10333053798987342,-0.11206043255142753,-6.615431118779991
34.4,-67.42030380429954,33.31512842443458,295.2116960799496,304.63968987871743,0,7.364120335968361,213.75587017127594,11.026197075980011,19.840389869331652,-0.010326576910984151,-0.011220544661263671,0.6202635543601919,1.064091571199914,0.0513625204540332,0.056289372638039306,9.170313700390585,16.13150008465096,-87211681923689.03,0.0,-214199751270.62033,0.2875529994111304,0.6395243866229434,0.2805703776625308,-0.6554403822030768,0.0513625204540332,0.056289372638039306,9.170313700390585
34.5,-67.42237423146963,33.312883408139314,294.95708165547705,304.3931746388023,0,7.342487791137911,213.5567345479524,11.02626072958613,19.831902721849236,-0.020704271700963933,-0.022450162952693767,-2.5461442447254607,1.1982384596316777,-0.10377694789979633,-0.11229618291429937,-31.66407799085608,16.51555163595094,-87211681923689.03,0.0,-214199751270.62033,0.2854460172195766,-0.6437818379109589,-0.2820427643334606,-0.6515499946409402,-0.10377694789979633,-0.11229618291429937,-31.66407799085608
34.61,-67.42444941481787,33.31064190406185,294.9995453328247,304.43453645985255,0,7.321987578074132,213.33596313235807,11.026250113666794,19.833318177760823,-0.018865303165811975,-0.020377309795094438,0.3860334304332292,1.0004975799907363,0.01671789577410879,0.01884411961453945,26.656160683260957,18.085239718030273,-87211681923689.03,0.0,-214199751270.62033,0.2931074220129536,0.6242725451005537,0.2727801298142968,-0.6707926873282778,0.01671789577410879,0.01884411961453945,26.656160683260957
34.8,-67.42653372861994,33.30840664171243,294.76715725109733,304.20957315239036,0,7.283701196069506,212.95041498136132,11.026308210687226,19.82557190836991,-0.01097007264248593,-0.01176453868117298,-1.2230951669862193,0.9705980043986406,0.041553844859611264,0.045330374283797686,-8.469097881155093,16.945381853214585,-2423867889415.983,0.0,55677753233.558105,0.28381402048658216,-0.6441781085685608,-0.28010596681576533,-0.6527057633960948,0.041553844859611264,0.045330374283797686,-8.469097881155093
34.9,-67.42861996703795,33.30617145052954,294.78949675132793,304.23143697233604,0,7.265092411759639,212.74536750193124,11.026302625812168,19.8263165583776,-0.020862384180020104,-0.02235191182890585,0.2233950023060029,0.48719696695781306,-0.09892311537534033,-0.10587373147732718,14.464901692922018,10.954783267878504,-4847735778991.106,0.0,111355506467.25107,0.30031158426337046,0.6029513335595347,0.26200874993173684,-0.691096271640364,-0.09892311537534033,-0.10587373147732718,14.464901692922018
35.1,-67.43071433412142,33.30394358987889,294.69535577646496,304.1404389594797,0,7.226693358820713,212.33091568811068,11.026326161055884,19.823178525882167,-0.010471835417362591,-0.01113930325324459,-0.4707048743148267,0.43243751579928913,0.05195274381328683,0.0560630428783055,-3.470499383104099,6.099397645146331,-4847735778991.106,0.0,111355506467.25107,0.28516964972273146,-0.6384047037050432,-0.2760576171022047,-0.659476987622876,0.05195274381328683,0.0560630428783055,-3.470499383104099
35.3,-67.43281457380833,33.301718319052306,294.6696729713604,304.11577580486613,0,7.189266982055608,211.91071624109645,11.02633258175716,19.822322432378677,-0.010501198434553995,-0.011126354132926746,-0.12841402552283218,0.21923180348532906,-0.0001468150859570222,6.474560158922226e-05,1.7114542439600093,4.931888131628216,-4847735778991.106,0.0,111355506467.25107,0.2961088074169417,-0.6096873496232191,-0.26292427005417407,-0.686637996396945,-0.0001468150859570222,6.474560158922226e-05,1.7114542439600093
35.4,-67.43491669992615,33.29949291726664,294.6805746827561,304.12656134286016,0,7.170903910944101,211.69848445965792,11.02632985632931,19.822685822758537,-0.021021261178190954,-0.022254017856652947,0.10901711395717784,0.18940891464615944,-0.1052006274363681,-0.11127663723726043,2.3743113948000665,2.1195744396467644,-4847735778991.106,0.0,111355506467.25107,0.3154437899328101,0.5546825555950082,0.23906602625389858,-0.7318947417508791,-0.1052006274363681,-0.11127663723726043,2.3743113948000665
35.5,-67.43702417619279,33.29727113366269,294.66515865927164,304.1118482111192,0,7.152355252020797,211.48484386190574,11.026333710335182,19.822171955309056,-0.02107476266644396,-0.022217836039501688,-0.15416023484476463,0.10276822461588948,-0.0005350148825300418,0.0003618181715125905,-2.631773488019387,1.4656185950347735,-4847735778991.106,0.0,111355506467.25107,0.30518609916252154,-0.5829390842127702,-0.25052544873947113,-0.710127079126706,-0.0005350148825300418,0.0003618181715125905,-2.631773488019387
35.7,-67.43914037621767,33.29505513730409,294.6501965513905,304.0975775619601,0,7.115656751971413,211.05337426006213,11.026337450862153,19.821673218379683,-0.010581000124360989,-0.0110799817930028,-0.07481053940580189,0.17320670493872914,0.052468812710414106,0.05568927123249365,0.39674847719480805,1.9349376904334055,-4847735778991.106,0.0,111355506467.25107,0.30472653587303433,-0.5812581153652815,-0.2486451331003871,-0.7123596980755664,0.052468812710414106,0.05568927123249365,0.39674847719480805
35.9,-67.44126130350276,33.29284197717628,294.6432969114474,304.09112033726325,0,7.079371203609039,210.61638414013626,11.026339175772138,19.82144323038158,-0.010604636425455508,-0.0110658006390454,-0.034498199715358904,0.20616067706600222,-0.00011818150547260052,7.09057697869974e-05,0.20156169845221922,1.914406613457332,-4847735778991.106,0.0,111355506467.25107,0.32908539539022286,-0.5012411974123248,-0.21389632432426806,-0.7711734091617055,-0.00011818150547260052,7.09057697869974e-05,0.20156169845221922
