time,position_x,position_y,position_z,ground_station_distance,comm_range_status,wind_speed,wind_angle,battery_voltage,battery_current,velocity_x,velocity_y,velocity_z,velocity_total,acceleration_x,acceleration_y,acceleration_z,acceleration_total,angular_x,angular_y,angular_z,orientation_w,orientation_x,orientation_y,orientation_z,linear_acceleration_x,linear_acceleration_y,linear_acceleration_z
0.0,-85.65323181030854,37.419987006255646,269.3324017,285.0906419940664,0,7.693324017,180.0,11.032666899575,18.977746723333333,0.010834798988028638,0.004467425492080679,0.012359152323995204,0.03051262378424623,0.10793626542167095,0.0436496181343671,0.2606566705736669,0.2413669983870111,2327994624546101.0,0.0,-12643487644821.7,0.9012094566115959,-0.07673108139233632,0.3873884654272309,0.1785049952133828,0.10793626542167095,0.0436496181343671,0.2606566705736669
0.2,-85.65106485051093,37.42088049135406,269.3348735304648,285.0924434397483,0,7.733346068691314,180.59998222238025,11.032666281617383,18.97782911768216,0.010834798988028638,0.004467425492080679,0.012359152323995204,0.03051262378424623,0.10793626542167095,0.0436496181343671,0.2606566705736669,0.2413669983870111,2327994624546101.0,0.0,-12643487644821.7,0.9012094566115959,-0.07673108139233632,0.3873884654272309,0.1785049952133828,0.10793626542167095,0.0436496181343671,0.2606566705736669
0.3,-85.64890200795791,37.42176373008461,269.3387160124029,285.095539703884,0,7.753378160529021,180.89994000119998,11.032665320996898,18.97795720041343,0.02162842553019573,0.008832387305517388,0.03842481938136189,0.03051262378424623,0.10793626542167095,0.0436496181343671,0.2606566705736669,0.2413669983870111,2327994624546101.0,0.0,-12643487644821.7,0.8553144958868919,-0.09442091454016388,0.48096521946393367,0.16791146979632177,0.10793626542167095,0.0436496181343671,0.2606566705736669
0.5,-85.64674360034478,37.422636742970404,269.3430996973098,285.09914728861344,0,7.793389335514455,181.4997222376539,11.032664225075672,18.97810332324366,0.010792038065687848,0.004365064428952792,0.0219184245344195,0.03051262378424623,-0.05418193732253941,-0.02233661438282298,-0.08253197423471195,0.2413669983870111,2327994624546101.0,0.0,-12643487644821.7,0.8412719033541263,-0.09840790680578759,0.5057488525520724,0.1636935143714963,-0.05418193732253941,-0.02233661438282298,-0.08253197423471195
0.6,-85.64458942527166,37.42349950076003,269.3474454367244,285.10271899088576,0,7.813402467326133,181.79952003839853,11.03266313864082,18.978248181224146,0.02154175073115994,0.008627577896263007,0.043457394145889346,0.03776717738657255,0.10749712665472094,0.042625134673102166,0.2153896961146985,0.2413669983870111,2327994624546101.0,0.0,-12643487644821.7,0.8421117269337675,-0.09736433306957204,0.5049805151630663,0.16236596106385495,0.10749712665472094,0.042625134673102166,0.2153896961146985
0.81,-85.64243978024254,37.424352034428004,269.35001968225174,285.1046171487559,0,7.855323107926513,182.42881919217493,11.032662495079437,18.97833398940839,0.010236404900576002,0.004059684133208985,0.012258312034960212,0.03111110715473776,-0.053834980145637784,-0.021751875062162005,-0.14856705767109105,0.23520473904267725,2327994624546101.0,0.0,-12643487644821.7,0.8970859304234741,-0.07642777391936037,0.40002405960739607,0.1713953924269826,-0.053834980145637784,-0.021751875062162005,-0.14856705767109105
0.9,-85.64029447266411,37.4251942451752,269.35422728558433,285.1080583888641,0,7.873299371251866,182.698380291575,11.032661443178604,18.978474242852812,0.023836750871453212,0.009357897191048578,0.04675114813987119,0.03128123310417212,0.15111495523196905,0.05886903397599551,0.383253734499011,0.25077404851207674,2327994624546101.0,0.0,-12643487644821.7,0.8453425023295863,-0.09478432984498728,0.5008145868401955,0.15998979398409877,0.15111495523196905,0.05886903397599551,0.383253734499011
1.1,-85.63815377984474,37.426026184429226,269.3537903985242,285.10711183839317,0,7.913094505659592,183.29704301743396,11.032661552400368,18.97845967995081,0.010703464096835088,0.0041596962701362355,-0.0021844353005917574,0.026499583838415552,-0.0656664338730906,-0.025991004604561708,-0.24467791720231466,0.2177996851726562,2402652061382805.5,0.0,-6309688651237.986,0.9785365962328423,0.017294500632942487,-0.0922446645908619,0.18346103655931947,-0.0656664338730906,-0.025991004604561708,-0.24467791720231466
1.2,-85.63601762899354,37.42684780384489,269.35495257300516,285.1076760234479,0,7.93297394030789,183.59616122861277,11.032661261856749,18.97849841910017,0.021361508512001165,0.008216194156673861,0.01162174480953128,0.02811222189138878,0.10658044415166092,0.04056497886537631,0.13806180110123056,0.22096266508606893,2402652061382805.5,0.0,-6309688651237.986,0.9561870106749846,-0.04249554905205718,0.22886136628059942,0.17754718795683097,0.10658044415166092,0.04056497886537631,0.13806180110123056
1.4,-85.63388597721917,37.42765905530456,269.359482061114,285.1114214936875,0,7.972681049899613,184.19390487759242,11.032660129484722,18.978649402037135,0.010658258871885097,0.00405625729833048,0.022647440544290024,0.020392518011459648,-0.053516248200580346,-0.02079968429171691,0.05512847867379373,0.14913598596551722,2402652061382805.5,0.0,-6309688651237.986,0.8373596802821758,-0.09484690598664584,0.5158792637020337,0.15395264059034566,-0.053516248200580346,-0.02079968429171691,0.05512847867379373
1.5,-85.63175911152891,37.42845998091855,269.3604082151129,285.11176282098637,0,7.992480347098327,184.49250374910727,11.032659897946221,18.978680273837096,0.021268656902577714,0.008009256139871461,0.009261539988756331,0.026832763078778733,0.10610398030692607,0.03952998841540978,-0.1338590055553368,0.15903225865020088,2402652061382805.5,0.0,-6309688651237.986,0.9654719560773191,-0.03443813810269714,0.1891709981082274,0.17576191324343282,0.10610398030692607,0.03952998841540978,-0.1338590055553368
1.7,-85.62963691882756,37.42925052302557,269.3622850874611,285.1130024062465,0,8.031987549008603,185.08908923171782,11.032659428728135,18.978742836248703,0.010610963506749728,0.003952710535131133,0.00938436174095614,0.02459520949767511,-0.05328846697913994,-0.020282728023701645,0.0006141087609990403,0.15390212121322855,2402652061382805.5,0.0,-6309688651237.986,0.9258176626042876,-0.06014942658506075,0.3337789648473524,0.1668391582238765,-0.05328846697913994,-0.020282728023701645,0.0006141087609990403
1.8,-85.62751934591644,37.43003065419308,269.3660495308367,285.1160253369815,0,8.051719642160014,185.38704932800138,11.03265848761729,18.978868317694555,0.021175729111178026,0.007801311675095228,0.03764443375587231,0.02834511279867417,0.10564765604428288,0.03848601139964092,0.28260072014916143,0.19987843932594346,2402652061382805.5,0.0,-6309688651237.986,0.8565894061889988,-0.08653471440754434,0.4852093442972287,0.15276853279990796,0.10564765604428288,0.03848601139964092,0.28260072014916143
2.0,-85.62540664949238,37.43080039721767,269.3678748981585,285.1172164381121,0,8.091017410571707,185.98223801800413,11.03265803127546,18.97892916327195,0.010563482120318214,0.0038487151229560377,0.009126836609141266,0.026288199511503695,-0.05306123495429907,-0.019762982760695956,-0.14258798573365525,0.19603024469181757,2402652061382805.5,0.0,-6309688651237.986,0.92809406374439,-0.05811829181008037,0.32928959071799957,0.1638048791833594,-0.05306123495429907,-0.019762982760695956,-0.14258798573365525
2.1,-85.62329869614662,37.43155970512548,269.3716740426079,285.1202723730547,0,8.110636540118279,186.27944015899064,11.032657081489347,18.979055801420262,0.021079533457566395,0.007593079078063163,0.03799144449374122,0.03219191217049842,0.10516051337248172,0.03744363955107122,0.2886460788459993,0.24737929421386565,2402652061382805.5,0.0,-6309688651237.986,0.8553858247582347,-0.0853159265741884,0.4885971356603256,0.14936238649669392,0.10516051337248172,0.03744363955107122,0.2886460788459993
2.3,-85.62119572236382,37.4323085711725,269.37344801765045,285.1214151529356,0,8.149689527246881,186.87299398884537,11.032656637995586,18.979114933921682,0.010514868913986689,0.00374433023509369,0.008869875212838009,0.026005194021302212,-0.05282332271789861,-0.01924374421484739,-0.14560784640451624,0.21784169314812996,2402652061382805.5,0.0,-6309688651237.986,0.9303875359762465,-0.056081079972300274,0.3246622576379075,0.16071205254941553,-0.05282332271789861,-0.01924374421484739,-0.14560784640451624
2.4,-85.61909758452104,37.433046968845005,269.3772704770579,285.12449338180244,0,8.169177957624848,187.16931929764107,11.032655682380735,18.979242349235264,0.020981378427791225,0.00738397672506607,0.038224594074449635,0.028345683341653865,0.10466509513804527,0.03639646489972377,0.293547188616116,0.21843501693155482,2402652061382805.5,0.0,-6309688651237.986,0.8544963573500347,-0.08394694590815731,0.4914067847259386,0.14597348209017202,0.10466509513804527,0.03639646489972377,0.293547188616116
2.61,-85.61700447888674,37.433774891859905,269.37884927492956,285.1254520299396,0,8.209882119087215,187.79054958741378,11.032655287681267,18.97929497583099,0.00996716968715072,0.003466300070950216,0.007518085103204917,0.024880745299792156,-0.05244861305066908,-0.0186556031148374,-0.14622147129164154,0.17694165640345974,2402652061382805.5,0.0,-6309688651237.986,0.9391772202947171,-0.05073417869845614,0.3003373246022899,0.15864956174544081,-0.05244861305066908,-0.0186556031148374,-0.14622147129164154
2.7,-85.61491639161972,37.43449233416509,269.37967286571427,285.1256973306684,0,8.227259602034804,188.0563308041621,11.03265508178357,18.97932242885714,0.023200969633623697,0.00797158116875428,0.009151008718946358,0.028016710798722127,0.14704222162747704,0.05005867886448943,0.018143595730460396,0.16899401734437405,-0.8951810838458272,0.0,0.15332807812595703,0.9706653601154543,-0.029249608118187997,0.175144406688007,0.16210384296115224,0.14704222162747704,0.05005867886448943,0.018143595730460396
2.9,-85.61283331876808,37.435199259939786,269.38455660423193,285.12977871375904,0,8.26575001625199,188.64590342175129,11.032653860848942,18.979485220141065,0.010415364258165041,0.003534628873467232,0.024418692588312783,0.02234572103729283,-0.06392802687729336,-0.022184761476435267,0.07633841934683222,0.11982019348593549,5.9451268634971415,0.0,-0.1499222346290864,0.8286350976253373,-0.08840236595856658,0.5355758976560961,0.13677483147948716,-0.06392802687729336,-0.022184761476435267,0.07633841934683222
3.0,-85.6107554062683,37.43589567359491,269.3865960456952,285.131173068121,0,8.28490637377963,188.94011988577776,11.032653350988577,18.979553201523174,0.020779124997858372,0.00696413655127514,0.020394414632960416,0.029947319234866165,0.10363760739693322,0.03429507677807905,-0.04024277955352363,0.16774434549753434,24.942533314550854,0.0,-0.15624966616780894,0.9184656931998015,-0.058926278724697106,0.361252436715652,0.14981702525971835,0.10363760739693322,0.03429507677807905,-0.04024277955352363
3.21,-85.60868263994412,37.43658155977342,269.38911404573116,285.13301974442066,0,8.324922417642766,189.55666554280648,11.032652721488567,18.979637134857704,0.009870315829408314,0.0032661246595669783,0.011990476361591262,0.02965796425814394,-0.05194671032595267,-0.017609580436705536,-0.040018753673186455,0.16273533485924402,11.874869970247723,0.0,0.15150841961142375,0.8981122020418802,-0.06606978758411909,0.40997679333210296,0.1447352225313531,-0.05194671032595267,-0.017609580436705536,-0.040018753673186455
3.3,-85.6066150155056,37.437256873350634,269.39315236040255,285.13630297682073,0,8.342017580393762,189.82033303863912,11.0326517119099,18.979771745346753,0.022973604872491844,0.0075034841912390285,0.04487016301545238,0.03405161400274252,0.14559210047870613,0.04708177257413396,0.36532985170956855,0.19036055046874992,8876166100589.791,0.0,-3536813803163.376,0.8478742245419496,-0.08059695606607979,0.5063599847399884,0.13495553298916185,0.14559210047870613,0.04708177257413396,0.36532985170956855
3.5,-85.60455268854807,37.437921609434575,269.39759994622955,285.139973122376,0,8.379771614373198,190.40498125354344,11.032650600013442,18.97991999820765,0.010311634787640847,0.0033236804197045414,0.02223792913497389,0.033181844486206195,-0.06330985042425494,-0.020899018857672414,-0.11316116940239235,0.19027024388046565,8876166100589.791,0.0,-3536813803163.376,0.8376473268880456,-0.08231150273036518,0.523676455911197,0.13166146664787307,-0.06330985042425494,-0.020899018857672414,-0.11316116940239235
3.6,-85.60249559455117,37.43857577336632,269.4019709602113,285.14357114478275,0,8.398568176152292,190.69661818922106,11.032649507259947,18.980065698673712,0.020570939968962403,0.006541639317418906,0.04371013981767642,0.040009988308447264,0.10259305181321547,0.032179588977143625,0.21472210682702514,0.22554129740514312,8876166100589.791,0.0,-3536813803163.376,0.8393060310012239,-0.08093638356573635,0.5215867743878038,0.13023795500543903,0.10259305181321547,0.032179588977143625,0.21472210682702514
3.8,-85.60044389887778,37.439219340720264,269.4066148598472,285.1474272560942,0,8.435907087424438,191.2784529096354,11.032648346285038,18.98022049532824,0.010258478366935733,0.0032178367697355314,0.023219498179400975,0.03507422208409897,-0.051562308010133416,-0.016619012738416896,-0.10245320819137738,0.16897554032667972,8876166100589.791,0.0,-3536813803163.376,0.8329535156688588,-0.08151569907272616,0.5322296967217452,0.12757421944519964,-0.051562308010133416,-0.016619012738416896,-0.10245320819137738
3.9,-85.59839753677312,37.439852297304526,269.4111340031583,285.1511657450748,0,8.454488170277905,191.56862483514698,11.03264721649921,18.98037113343861,0.020463621046644658,0.0063295658426198945,0.04519143311085823,0.039153930994021834,0.10205142679708916,0.031117290728843606,0.21971934931457235,0.18621325095252791,8876166100589.791,0.0,-3536813803163.376,0.835589206628464,-0.07988955199611227,0.5286423219152204,0.12627601802384736,0.10205142679708916,0.031117290728843606,0.21971934931457235
4.11,-85.59635666336362,37.44047462916118,269.4162250487086,285.15544486121075,0,8.493214749186563,192.17629692654444,11.032645943737823,18.980540834956955,0.009718444807135908,0.00296348503168598,0.024243074049189996,0.03637620191580915,-0.05116750590242252,-0.01602895624254242,-0.09975409076984854,0.15223313537766828,8876166100589.791,0.0,-3536813803163.376,0.8235231836197157,-0.0816629840572615,0.5477849378380387,0.1227696418235691,-0.05116750590242252,-0.01602895624254242,-0.09975409076984854
4.2,-85.59432124365605,37.441086322566605,269.41968685562665,285.1581849422527,0,8.509717774675407,192.43600418538512,11.032645078286093,18.98065622852089,0.022615774528528906,0.006796593393608606,0.03846452131155179,0.03993307675248664,0.14330366357103355,0.04259009291025147,0.1580160806929091,0.1520537877518339,8876166100589.791,0.0,-3536813803163.376,0.8634176988318443,-0.07101790489883575,0.4830671228134667,0.12693498093284467,0.14330366357103355,0.04259009291025147,0.1580160806929091
4.4,-85.59229131253646,37.44168738403177,269.4263298836264,285.1639309605167,0,8.546142228968263,193.01151495687571,11.032643417529092,18.980877662787545,0.010149655597970755,0.003005307325842918,0.03321513999878786,0.03638619460107463,-0.0623305946527907,-0.01895643033882842,-0.026246906563819627,0.11610774363543616,8876166100589.791,0.0,-3536813803163.376,0.7990050815132381,-0.08463969867475471,0.5839654401777937,0.11580745141063221,-0.0623305946527907,-0.01895643033882842,-0.026246906563819627
4.5,-85.59026695476918,37.44227773030256,269.4301199930287,285.1669818167587,0,8.564232268152749,193.2984092997603,11.032642470001742,18.981003999767623,0.020243577672829433,0.0059034627078347265,0.03790109402302746,0.04146827572062649,0.10093922074858715,0.028981553819918186,0.04685954024239612,0.13291624650491085,8876166100589.791,0.0,-3536813803163.376,0.8533661836305201,-0.07167061094531212,0.5017688536199512,0.12189133562122899,0.10093922074858715,0.028981553819918186,0.04685954024239612
4.7,-85.5882482049959,37.44285741836002,269.43622404478214,285.17221924647856,0,8.600134811205958,193.87041214631236,11.032640943988804,18.981207468159404,0.010093748866353272,0.00289844028731778,0.030520258767126024,0.039543274430744325,-0.05074914403238076,-0.015025112102584719,-0.036904176279507137,0.10637808010608012,8876166100589.791,0.0,-3536813803163.376,0.8061096918362091,-0.08093840531518684,0.5751227708222552,0.11344574806707464,-0.05074914403238076,-0.015025112102584719,-0.036904176279507137
4.8,-85.58623508773462,37.443426425420704,269.4409515004844,285.1761563743632,0,8.61796786608781,194.1554952277253,11.032639762124878,18.981365050016148,0.02013117261284954,0.0056900706068319295,0.04727455702266087,0.04289995216107896,0.10037423746496305,0.027916303195141594,0.16754298255534902,0.12608634569146324,8876166100589.791,0.0,-3536813803163.376,0.8301170675134968,-0.07490760516300787,0.5404213057737467,0.11506223175887921,0.10037423746496305,0.027916303195141594,0.16754298255534902
5.0,-85.58422768737869,37.44398471893689,269.44774102240336,285.18204214598296,0,8.65332848743244,194.72376135582684,11.032638064744399,18.981591367413447,0.010037001779679136,0.0027914675809270735,0.033947609594804334,0.04220516598346204,-0.05047085416585198,-0.014493015129524268,-0.06663473713928261,0.11669535607585726,8876166100589.791,0.0,-3536813803163.376,0.7967847646375296,-0.08037212129192381,0.5889403587694464,0.10873644638789998,-0.05047085416585198,-0.014493015129524268,-0.06663473713928261
5.1,-85.58222599819581,37.44453230659691,269.45247017349755,285.1859815788035,0,8.67087919550079,195.00691914633666,11.032636882456625,18.981749005783254,0.020016891828760278,0.0054758766002294314,0.04729151094181833,0.046087772817397885,0.09979890049081178,0.026844090193023674,0.1334390134701404,0.13091137121855967,8876166100589.791,0.0,-3536813803163.376,0.8297561684560547,-0.0728005941471392,0.5420186147846584,0.11144772598788666,0.09979890049081178,0.026844090193023674,0.1334390134701404
5.3,-85.58023013432714,37.4450691463254,269.4601775174376,285.19273528781633,0,8.70566845758407,195.57122125711322,11.03263495562064,18.982005917247918,0.009979319343358375,0.0026841986424486187,0.03853671970034608,0.044300811712191655,-0.05018786242700947,-0.013958389788904051,-0.04377395620736121,0.10313836279838903,8876166100589.791,0.0,-3536813803163.376,0.7865757648690856,-0.07973814923832508,0.6034378982487384,0.10393794607266695,-0.05018786242700947,-0.013958389788904051,-0.04377395620736121
5.4,-85.5782400697862,37.44559527628356,269.46491891862695,285.1966870544947,0,8.722921172492494,195.85234049737906,11.032633770270342,18.982163963954232,0.01990064540933634,0.005261299581604789,0.047414011893351676,0.05493918973291043,0.09921326065977913,0.02577100939156157,0.08877292193005552,0.18833404078317348,8876166100589.791,0.0,-3536813803163.376,0.8291589834280678,-0.07069058751850034,0.5439550886008997,0.10775473364084574,0.09921326065977913,0.02577100939156157,0.08877292193005552
5.61,-85.57625589845799,37.446110624869426,269.4736617422226,285.2044199294431,0,8.758802992017447,196.44038273173368,11.032631584564443,18.98245539140742,0.00944843489627428,0.0024540408850677008,0.04163249331256902,0.051738386017418356,-0.049772431014581245,-0.013367898554938518,-0.027531040860869802,0.20766787382268906,-884598104253.2058,0.0,1928616519377.3757,0.7773559046219212,-0.07871257938184702,0.616166268928087,0.09930385909787882,-0.049772431014581245,-0.013367898554938518,-0.027531040860869802
5.7,-85.57427762409799,37.446615240718124,269.4813794541554,285.21118466215006,0,8.774077892009492,196.69142112358423,11.03262965513646,18.982712648471846,0.02198082622221089,0.005606842763307272,0.08575235480887197,0.06263090902786636,0.139248792510407,0.035031131980439736,0.4902206832922558,0.31180488247990185,-884598104253.2058,0.0,1928616519377.3757,0.7862121782634383,-0.07597990391050824,0.6052744544195066,0.0986929570900494,0.139248792510407,0.035031131980439736,0.4902206832922558
5.9,-85.57230533033119,37.447109072702126,269.48821142115156,285.21711293753316,0,8.807604160037084,197.24711973558604,11.032627947144713,18.982940380705053,0.009861468833989298,0.0024691599200110637,0.034159834980869136,0.0653973458594547,-0.06059678694110791,-0.01568841421648103,-0.25796259914001396,0.31392971034562145,-884598104253.2058,0.0,1928616519377.3757,0.7956102810411394,-0.07315034351693647,0.5933225151554286,0.09809026941868149,-0.06059678694110791,-0.01568841421648103,-0.25796259914001396
6.0,-85.57033901065117,37.44759210993147,269.4974277107527,285.22529448830784,0,8.824259223897597,197.52382540388928,11.032625643072311,18.983247590358424,0.01966319680022373,0.00483037229344065,0.09216289601113237,0.0671398497924948,0.09801727966234465,0.023612123734295942,0.5800306103026344,0.3422838451736208,-884598104253.2058,0.0,1928616519377.3757,0.7736421201036493,-0.07529508768737393,0.6221265287743838,0.09363280390342466,0.09801727966234465,0.023612123734295942,0.5800306103026344
6.2,-85.56837872841905,37.44806436175403,269.5103759913361,285.23700273569625,0,8.85717408098797,198.07488797572614,11.032622406002165,18.983679199711204,0.009801411160594844,0.002361259112788614,0.06474140291714997,0.06404117200321316,-0.04930892819814438,-0.012345565903260167,-0.13710746546991187,0.2671941698736001,-884598104253.2058,0.0,1928616519377.3757,0.7542623066800351,-0.0767041850294528,0.6458958507563287,0.08957338162891179,-0.04930892819814438,-0.012345565903260167,-0.13710746546991187
6.3,-85.56642455686266,37.44852580775575,269.51511563213575,285.2409554233454,0,8.873440672205897,198.34922038768065,11.032621221091965,18.98383718773786,0.019541715563917775,0.004614460017222671,0.04739640799641637,0.06716039450766005,0.09740304403322965,0.02253200904434065,-0.17344994920733664,0.2684745766835707,-884598104253.2058,0.0,1928616519377.3757,0.828093828330236,-0.06388401528066197,0.5485234183557469,0.09644430303714199,0.09740304403322965,0.02253200904434065,-0.17344994920733664
6.5,-85.56447650907546,37.448976417760846,269.5296202032623,285.2541351881248,0,8.905669013504703,198.89542650167127,11.032617594949183,18.984320673442078,0.009740238935975745,0.002253050025480261,0.07252285563282605,0.06403716338757409,-0.049007383139710106,-0.01180704995871204,0.1256322381820483,0.18321414500914518,-884598104253.2058,0.0,1928616519377.3757,0.7489798119125888,-0.07451862692621185,0.6528144216514921,0.08549588570360125,-0.049007383139710106,-0.01180704995871204,0.1256322381820483
6.6,-85.56253464801568,37.44941621183205,269.5343411757234,285.25807119699726,0,8.921577115704102,199.16727592796997,11.03261641470607,18.98447803919078,0.019418610597767907,0.004397940712053143,0.0472097246108662,0.06116340911967398,0.09678371661792197,0.0214489068657289,-0.25313131021959945,0.21887375258338942,-884598104253.2058,0.0,1928616519377.3757,0.8280846383194603,-0.0614449548616531,0.54947755996669,0.09260000212975408,0.09678371661792197,0.0214489068657289,-0.25313131021959945
6.8,-85.56059896650537,37.449845180270835,269.5499648214441,285.27230944270633,0,8.953085696251378,199.70840710895135,11.032612508794639,18.98499882738147,0.009678407551589876,0.0021448421939140854,0.0781182286036141,0.0682470168453537,-0.04870101523089011,-0.01126549259069528,0.15454251996373938,0.21921419246212737,-884598104253.2058,0.0,1928616519377.3757,0.7458405535499543,-0.0719458302969568,0.6571746298122452,0.08165275325619924,-0.04870101523089011,-0.01126549259069528,0.15454251996373938
6.9,-85.55866958722933,37.45026330361762,269.5546838132865,285.2762445923737,0,8.9686212025768,199.9776648134484,11.032611329046677,18.98515612710955,0.01929379276035082,0.00418123346783259,0.04718991842366879,0.08740634556328437,0.09615385208760893,0.020363912739184937,-0.30928310179945145,0.35636813680249213,-884598104253.2058,0.0,1928616519377.3757,0.8277116697510052,-0.05901473245598234,0.550953884268621,0.08865929460846533,0.09615385208760893,0.020363912739184937,-0.30928310179945145
7.1,-85.55674651273439,37.450670562651965,269.57195072507045,285.29203672229687,0,8.999387049293778,200.51350461616315,11.032607012318731,18.985731690835685,0.009615372474698382,0.002036295171734544,0.08633455891981642,0.08437679199070662,-0.04839210142826237,-0.010724691480490267,0.19572320248073885,0.435480155343919,-884598104253.2058,0.0,1928616519377.3757,0.7419693865600181,-0.06935946441760325,0.6622936241224004,0.07770360062616206,-0.04839210142826237,-0.010724691480490267,0.19572320248073885
7.2,-85.55482973542823,37.451066968392816,269.5887375315929,285.30737584578367,0,9.014656719258877,200.78006289936673,11.032602815617102,18.986291251053096,0.01916777306163898,0.0039640574085097816,0.16786806522475128,0.10549931036531565,0.09552400586940549,0.01927762236775227,0.8153350630493442,0.7007921910840864,-884598104253.2058,0.0,1928616519377.3757,0.7430524703565733,-0.06768029680694132,0.6614467425174976,0.076030326410646,0.09552400586940549,0.01927762236775227,0.8153350630493442
7.4,-85.55291941757865,37.45145250209865,269.5956872086481,285.31342042899223,0,9.04453269534277,201.31039699503822,11.032601078197837,18.98652290695494,0.009551589247891448,0.001927668529155822,0.034748385275804566,0.11584767446761687,-0.048080919068737626,-0.010181944396769789,-0.665598399744733,0.7134987555206291,-884598104253.2058,0.0,1928616519377.3757,0.7929236378349674,-0.0600563507496372,0.6011576177243887,0.07921400096659405,-0.048080919068737626,-0.010181944396769789,-0.665598399744733
7.5,-85.55101547131252,37.45182714526769,269.6140205330471,285.3302221509073,0,9.05941772537714,201.57414923718915,11.032596494866738,18.987134017768238,0.019039462661254513,0.0037464316904589757,0.18333324399009207,0.10982750477415817,0.09487873413363099,0.0181876316130316,1.4858485871428804,0.7871867154165776,38431122944326.3,0.0,-21120236407.762703,0.7398842832609789,-0.064874068736419,0.6657054697576805,0.07210291342016581,0.09487873413363099,0.0181876316130316,1.4858485871428804
7.71,-85.54911800861485,37.452190909638134,269.63554188263794,285.3500370463051,0,9.09006102104583,202.1248939586155,11.03259111452934,18.987851396087933,0.009035536655571401,0.0017322112878134922,0.1024826170992453,0.0990212673570273,-0.0476377428842053,-0.009591525726883257,-0.3850029851945085,0.6860307775230368,2392574060842.012,0.0,-2171583811755.2734,0.7347347998913153,-0.06380807748807954,0.6717307938426852,0.06979286266818537,-0.0476377428842053,-0.009591525726883257,-0.3850029851945085
7.8,-85.54722709132795,37.45254377718826,269.6402773363248,285.3539911415426,0,9.10296161176407,202.35960620296817,11.03258993066592,18.98800924454416,0.021010192076668502,0.0039207505569689004,0.052616152076249596,0.101029277205226,0.1330517269010791,0.024317102990615687,-0.554071833588842,0.683901887283254,-5.153896038484189,0.0,-0.3012952786949622,0.8260333482051628,-0.05143812161001872,0.5560430671064034,0.07641423179686434,0.1330517269010791,0.024317102990615687,-0.554071833588842
8.0,-85.54534270115043,37.45288572013665,269.6631922740874,285.3751243084693,0,9.13134410453992,202.87829479190856,11.032584201931478,18.988773075802914,0.009421950887613653,0.0017097147419420351,0.11457468881303602,0.08962438841641358,-0.057941205945274195,-0.011055179075134317,0.30979268368393187,0.4750643471784078,-5.153896038484189,0.0,-0.3012952786949622,0.7330018530137119,-0.060683580644155785,0.6742953013192204,0.06596690941290606,-0.057941205945274195,-0.011055179075134317,0.30979268368393187
8.11,-85.54346494963627,37.45321677094237,269.667894577001,285.3790482983525,0,9.146631566859252,203.16184574156526,11.03258302635575,18.988929819233366,0.017070468310526648,0.0030095527792701297,0.04274820830532526,0.07825955257268034,0.06953197657193667,0.011816709430255467,-0.6529680046155557,0.5510884867146375,-5.153896038484189,0.0,-0.3012952786949622,0.8262325422746555,-0.048684777712502125,0.5565481023893876,0.07227577901493558,0.06953197657193667,0.011816709430255467,-0.6529680046155557
8.3,-85.54159378819399,37.45353690230511,269.6920132272551,285.4013204119537,0,9.172782874492476,203.64867307169013,11.032576996693185,18.989733774241838,0.009848218117269814,0.001684901909165511,0.12694026449516405,0.09363862792443864,-0.03801184312240413,-0.006971846684761104,0.4431160852096748,0.5326667831770779,-5.153896038484189,0.0,-0.3012952786949622,0.7316909648845956,-0.057441182396557475,0.6763634142140194,0.062139958029353196,-0.03801184312240413,-0.006971846684761104,0.4431160852096748
8.41,-85.53972935808567,37.45384610716534,269.69671540817285,285.40524555240876,0,9.187587574809584,203.92879124602558,11.032575821147956,18.98989051360576,0.016949364621155014,0.00281095327481623,0.04274709925249993,0.11756080392714732,0.06455587730804761,0.010236830596824769,-0.7653924112969506,0.6714021472048961,-5.153896038484189,0.0,-0.3012952786949622,0.8257345905670568,-0.045961165086030216,0.5580546392057589,0.0680071827524132,0.06455587730804761,0.010236830596824769,-0.7653924112969506
8.6,-85.537871570426,37.45414436870451,269.72204610423046,285.428664569351,0,9.212905586832859,204.40959219755445,11.032569488473943,18.990734870141015,0.00977782978768157,0.0015697975745871757,0.13331945293478084,0.1155662921687052,-0.037744920176176124,-0.006532398422258196,0.47669659832779554,0.7391738849666004,-5.153896038484189,0.0,-0.3012952786949622,0.7305088311727571,-0.05409969037990571,0.6782587957835786,0.05826728946519002,-0.037744920176176124,-0.006532398422258196,0.47669659832779554
8.7,-85.53602056618153,37.454431690345146,269.74542970107586,285.45024454738694,0,9.226112171061768,204.6610771556343,11.03256364257473,18.991514323369195,0.018510042444717167,0.0028732164063427594,0.23383596845406002,0.13089864398945236,0.08732212657035629,0.013034188317555883,1.0051651551927954,0.9311906689474915,495672205943.702,0.0,-1154972822627.9175,0.7326189245917993,-0.052175155578222776,0.676278452580847,0.056521845734184124,0.08732212657035629,0.013034188317555883,1.0051651551927954
8.9,-85.53417642616954,37.454708065751035,269.7524163855476,285.4563305289192,0,9.251667658909124,205.16074781199663,11.032561895903612,18.991747212851585,0.009220700059984162,0.001381877029444915,0.034933422358562706,0.15231358019137375,-0.04644671192366478,-0.007456696884489183,-0.9945127304774813,0.8340809048408362,8.639544694463963,0.0,-0.11341405975064216,0.7908620234406215,-0.0452667471442761,0.6074661247121619,0.05893291787761879,-0.04644671192366478,-0.007456696884489183,-0.9945127304774813
9.02,-85.53233907105738,37.45497349882734,269.77682524569383,285.47888101645947,0,9.266905376620768,205.45840883930293,11.032555793688577,18.992560841523126,0.015311292601320385,0.0022119423025657313,0.2034071678854364,0.1355515560387797,0.050754937844468856,0.006917210609340182,1.4039478793906233,0.9519361312392961,3.1875172327586654,0.0,0.20568032571147832,0.7315427814250314,-0.04872193467975661,0.6780176357361818,0.05256821907491842,0.050754937844468856,0.006917210609340182,1.4039478793906233
9.2,-85.53050859136138,37.455227963720745,269.8043293707909,285.5043574955266,0,9.289246533780641,205.90183946278617,11.032548917657302,18.99347764569303,0.01016933164442613,0.0014136938522331874,0.15280069498386561,0.11715573716800905,-0.02856644976052368,-0.004434713612958585,-0.28114707167539366,0.8465248132592673,594080917565.9779,0.0,-1229018199859.6133,0.7286837643469508,-0.047133456146152525,0.6813644885454684,0.05040677174793566,-0.02856644976052368,-0.004434713612958585,-0.28114707167539366
9.3,-85.52868508744606,37.45547147481959,269.8089653513622,285.50822422508446,0,9.301329535281177,206.14658222417873,11.03254775866216,18.99363217837874,0.018235039153182437,0.002435110988443477,0.046359805712653974,0.11994285319684983,0.08065707508756191,0.010214171362102752,-1.0644088927121014,0.8395685742333103,565535608613.0922,0.0,11760986165.413086,0.8254774803633977,-0.03726087953141275,0.5605242526135169,0.05487365945059731,0.08065707508756191,0.010214171362102752,-1.0644088927121014
9.5,-85.5268685095232,37.455704016753984,269.83742767919597,285.53460801969567,0,9.325205286370707,206.63257072314389,11.0325406430802,18.994580922639866,0.0090828896143336,0.0011627096719735205,0.1423116391688955,0.10751782709871852,-0.04576074769424435,-0.0063620065823498054,0.4797591672812094,0.6539551379474944,565535608612.851,0.0,11760986165.74764,0.7279783862877836,-0.04351530925343921,0.6826422466745313,0.04640528001812346,-0.04576074769424435,-0.0063620065823498054,0.4797591672812094
9.6,-85.525058987651,37.45592558439593,269.84209334736454,285.53850426573433,0,9.336804070075642,206.87379486130766,11.032539476663159,18.99473644491215,0.01809521872203852,0.002215676419439213,0.04665668168570408,0.08595470689704932,0.09012329107704951,0.010529667474656964,-0.9565495748319176,0.7785204954255651,564611606355.0134,0.0,-1250819943281.6033,0.8242824915003578,-0.03433379629570632,0.5628958895371083,0.05027705421079445,0.09012329107704951,0.010529667474656964,-0.9565495748319176
9.8,-85.52325648173311,37.45613616285942,269.87040915024176,285.5647514494915,0,9.359698832486359,207.35264931030852,11.032532397712439,18.995680305008058,0.009012529589398306,0.001052892317474624,0.14157901438608103,0.10409091431375606,-0.045413445663200824,-0.005813920509822915,0.4746116635018822,0.6633194364261353,564611606360.322,0.0,-1250819943281.942,0.7281364632296593,-0.03975856899559845,0.6829639678143168,0.042388274017112176,-0.045413445663200824,-0.005813920509822915,0.4746116635018822
9.91,-85.52146110151787,37.45633576750059,269.87505668352196,285.56863206241746,0,9.371899067548618,207.61395197282562,11.032531235829119,18.995835222784066,0.016321638320381433,0.0018145876469785446,0.042250302547328054,0.12580423151543613,0.06644644300893786,0.006924502995490223,-0.9029882894432135,0.7881705627812523,-29469311210.012074,0.0,-21801743422.562286,0.8240488250267001,-0.031245050088903777,0.5638100895086622,0.045666878427272226,0.06644644300893786,0.006924502995490223,-0.9029882894432135
10.11,-85.5196728065973,37.45652438391776,269.90311064423724,285.5946336878651,0,9.393757670112091,208.08523338561238,11.03252422233894,18.996770354807907,0.008941474602863795,0.000943082085846928,0.14026980357641655,0.12329124359146378,-0.03690081858758832,-0.004357527805658098,0.4900975051454442,0.8216513349050809,-12769974392.387072,0.0,-2560847795830.811,0.728365490112455,-0.03592843772767868,0.6831731680269741,0.03830512581469279,-0.03690081858758832,-0.004357527805658098,0.4900975051454442
10.21,-85.51789161640635,37.45670200795158,269.92816403077563,285.6178006512431,0,9.404543563826579,208.31900697273568,11.032517958992306,18.997605467692523,0.01781190190953882,0.0017762403381737816,0.25053386538388267,0.14461616621270937,0.088704273066749,0.008331582523268417,1.1026406180746455,1.149666533487077,-12769974397.733746,0.0,-2560847795830.801,0.7309661902418639,-0.033851639630430135,0.6806031841790893,0.03635657991218704,0.088704273066749,0.008331582523268417,1.1026406180746455
10.4,-85.51611772022191,37.456868635685076,269.93506794289914,285.6238160645351,0,9.42415913391567,208.75970075385504,11.032516233014276,18.997835598096636,0.009336295707534647,0.0008769880710477368,0.0363363795973951,0.16146280927349832,-0.04460845369475893,-0.004732906669084459,-1.1273551883499375,1.0875079891385016,33329126901536.945,0.0,24243564281.00117,0.7896662773343088,-0.028668628579751356,0.6117481509507462,0.03700648571093913,-0.04460845369475893,-0.004732906669084459,-1.1273551883499375
10.5,-85.51435101716211,37.457024263443806,269.959853981761,285.64673227329655,0,9.434444991005645,208.9897959256961,11.03251003650456,18.998661799392032,0.017667030598005402,0.0015562775872979327,0.24786038861862014,0.14313110315641492,0.08330734890470785,0.006792895162501983,2.1152400902122577,1.1573767960668604,33329126901536.945,0.0,24243564281.00117,0.7311994657057335,-0.029925415318102225,0.6807485766529977,0.03214321475220989,0.08330734890470785,0.006792895162501983,2.1152400902122577
10.7,-85.51259160618518,37.457168897795874,269.9857063499236,285.6706573281746,0,9.4542580720486,209.4461108084199,11.03250357341252,18.999523544997455,0.008797054884652798,0.0007231717603417591,0.1292618408129447,0.11853007790575554,-0.04434987856676318,-0.004165529134780883,-0.5929927390283793,1.0188379671351036,33329126901536.945,0.0,24243564281.00117,0.7301820112069974,-0.027985968164046433,0.6820214687387172,0.029962180746874744,-0.04434987856676318,-0.004165529134780883,-0.5929927390283793
10.8,-85.51083955608898,37.45730251555203,269.99026965137546,285.67446315649426,0,9.46381831028365,209.6723102387163,11.032502432587156,18.99967565504585,0.01752050096200694,0.0013361775615549996,0.045633014518670544,0.12061948629357207,0.08723446077354019,0.0061300580121323184,-0.8362882629427296,0.9604183410750439,33329126901536.945,0.0,24243564281.00117,0.8238237966533184,-0.021534858255908413,0.5655675270179225,0.031368365122227626,0.08723446077354019,0.0061300580121323184,-0.8362882629427296
11.0,-85.50909483550979,37.45742512376574,270.0158433915489,285.698126838347,0,9.48257315403836,210.120742811271,11.032496039152113,19.00052811305163,0.008723602895983649,0.000613041068540101,0.1278687008672823,0.09391561769101539,-0.043984490330116616,-0.0036156824650745057,0.41117843174306024,0.6042507533282028,33329126901536.945,0.0,24243564281.00117,0.7303827809834834,-0.023938676090506095,0.6821370420344377,0.025631794989318238,-0.043984490330116616,-0.0036156824650745057,0.41117843174306024
11.1,-85.5073575429216,37.45753671973325,270.02031377733726,285.701846517475,0,9.491600509133468,210.34295602326654,11.032494921555665,19.000677125911242,0.01737292588188672,0.0011159596751042539,0.04470385788351921,0.07677713485482436,0.08649322985903103,0.005029186065641547,-0.8316484298376339,0.6350831828074399,33329126901536.945,0.0,24243564281.00117,0.8250688983945157,-0.018099676002748723,0.5641213897504636,0.026472103366779437,0.08649322985903103,0.005029186065641547,-0.8316484298376339
11.31,-85.50562766663535,37.45763732099366,270.0443962171112,285.7241027365394,0,9.51012075599029,210.80520245661052,11.032488900945722,19.00147987390371,0.008237506124990919,0.00047905362101746744,0.11467828463791839,0.09464640295424336,-0.043501998842360785,-0.0030328859718418283,0.33321155597332813,0.5700258508739151,33329126901536.945,0.0,24243564281.00117,0.7317319771498458,-0.019784354122588214,0.68097352819249,0.021259041591793013,-0.043501998842360785,-0.0030328859718418283,0.33321155597332813
11.41,-85.50390529479792,37.45772689532897,270.0484300207368,285.7274114982523,0,9.518585572674432,211.0232032194721,11.032487892494816,19.00161433402456,0.017223718374310755,0.0008957433530554258,0.04033803625588931,0.11526886993668059,0.08986212249319868,0.004166897320379598,-0.7434024838202934,0.67341149180518,33329126901536.945,0.0,24243564281.00117,0.8343244645076353,-0.01430928379825934,0.5506613209449781,0.02168045055712821,0.08986212249319868,0.004166897320379598,-0.7434024838202934
11.6,-85.50219035539136,37.4578054407641,270.0746404995911,285.75168098366646,0,9.534352622539444,211.43359810560466,11.032481339875101,19.00248801665304,0.009025996876600521,0.0004133970270010278,0.1379498887068194,0.11197722656521185,-0.04314590261952766,-0.002538664873970522,0.5137465918470019,0.697031088223986,33329126901536.945,0.0,24243564281.00117,0.7296575416528719,-0.01564258412967762,0.683429783793587,0.016700661504395357,-0.04314590261952766,-0.002538664873970522,0.5137465918470019
11.7,-85.5004829862321,37.45787296556698,270.0977052665796,285.7729784781193,0,9.542478248138067,211.64757386401845,11.032475573683355,19.003256842219322,0.017073691592628452,0.0006752480287985942,0.23064766988511648,0.13783662154424187,0.08047694716027959,0.002618510017975673,0.9269778117829741,1.1039495416830853,33329126901536.945,0.0,24243564281.00117,0.7326189223081266,-0.01344837730809312,0.6803520715415153,0.014481525231377267,0.08047694716027959,0.002618510017975673,0.9269778117829741
11.91,-85.49878327497005,37.45792946824854,270.10410133615255,285.7785226012605,0,9.558521339111604,212.09233335092716,11.032473974665962,19.003470044538417,0.008093863152612867,0.0002690603883777266,0.030457474156805893,0.15463601673931257,-0.04276108780959785,-0.0019342268591469808,-0.9532866463252847,1.0706054209443119,33329126901536.945,0.0,24243564281.00117,0.7926584216545407,-0.01012685587751735,0.6094395696821331,0.013171342977258015,-0.04276108780959785,-0.0019342268591469808,-0.9532866463252847
12.0,-85.49709110908782,37.4579749475628,270.12602052432106,285.7987393946898,0,9.565338377177664,212.28102409047852,11.032468494868919,19.004200684144035,0.018801843135918293,0.0005053257140730246,0.2435465352056734,0.13133654249706445,0.11897755537006048,0.0026251702855033155,2.3676562338763096,1.075015881875087,-74275531405528.1,0.0,-1458941573209.069,0.7337589606438908,-0.009126610339415798,0.6792770424000135,0.009858616880662871,0.11897755537006048,0.0026251702855033155,2.3676562338763096
12.2,-85.49540663589978,37.45800940250685,270.1515384486735,285.8223587307705,0,9.57971409712487,212.696166348446,11.032462115387832,19.00505128162245,0.00842236594017723,0.00017227472024927755,0.12758962176207023,0.1374438255624191,-0.051897385978705496,-0.0016652549691187411,-0.579784567218018,1.3716415400103354,-74275531405528.1,0.0,-1458941573209.069,0.7299898230559841,-0.006988359845788414,0.6833815150312043,0.007464983256162101,-0.051897385978705496,-0.0016652549691187411,-0.579784567218018
12.4,-85.49372990255145,37.4580328323209,270.1555518283917,285.82565360726545,0,9.593123517182995,213.10549604073105,11.032461112042903,19.00518506094639,0.008383666741664752,0.00011714907024895575,0.020066898591153296,0.14003485807261762,-0.00019349599256239248,-0.0002756282500016075,-0.5376136158545818,1.6208562156140638,-74275531405528.1,0.0,-1458941573209.069,0.8323038994591259,-0.0038723926384681166,0.5542755736073987,0.005814810622552761,-0.00019349599256239248,-0.0002756282500016075,-0.5376136158545818
12.5,-85.49206082601846,37.45804523648827,270.18168018426684,285.8498520629526,0,9.599786040553841,213.30795839382168,11.032454579953933,19.00605600614223,0.016690765329912042,0.00012404167364366047,0.26128355875130277,0.1167280547431894,0.08307098588247319,6.892603394704737e-05,2.4121666016015033,1.233348445037565,-74275531405528.1,0.0,-1458941573209.069,0.7292931575500806,-0.002542335709696138,0.6841912621322328,0.0027099265072436426,0.08307098588247319,6.892603394704737e-05,2.4121666016015033
12.6,-85.49039959310582,37.458046614735416,270.1858053387151,285.85325445989,0,9.606038736568184,213.50894039868865,11.032453548665321,19.006193511290505,0.016612329126388718,1.3782471484091779e-05,0.04125154448274785,0.100061851162683,-0.0007843620352332465,-0.0011025920215956908,-2.200320142685557,1.289876103586262,-74275531405528.1,0.0,-1458941573209.069,0.8287204193618084,-0.0002321629099694477,0.5596626612985564,0.00034377520141101964,-0.0007843620352332465,-0.0011025920215956908,-2.200320142685557
12.8,-85.4887461104472,37.458036947031964,270.2112993157935,285.8768555189298,0,9.618144713736385,213.90642769994,11.03244717517105,19.00704331052645,0.008267413293125926,-4.833851726004897e-05,0.12746988539191695,0.12163334053760691,-0.04172457916631374,-0.00031060494372070214,0.4310917045458432,1.2707032549092419,-74275531405528.1,0.0,-1458941573209.069,0.7296279168643325,0.0019991402669740045,0.6838381070617271,-0.0021330027289341805,-0.04172457916631374,-0.00031060494372070214,0.4310917045458432
12.9,-85.48710053450397,37.45801627359065,270.2154377412153,285.88027237748594,0,9.623824505824299,214.10291533028746,11.032446140564696,19.00718125804051,0.01645575943229011,-0.00020673441312624237,0.04138425421786011,0.11717782416090919,0.08188346139164214,-0.0015839589586619394,-0.8608563117405715,1.0078567526216706,-74275531405528.1,0.0,-1458941573209.069,0.8274857120236577,0.00352663139469777,0.5614516395509952,-0.005197664206698631,0.08188346139164214,-0.0015839589586619394,-0.8608563117405715
13.1,-85.48546279156449,37.45798457486736,270.2413070423655,285.9042304497522,0,9.634782973649124,214.491334887058,11.032439673239407,19.00804356807885,0.008188714697396933,-0.0001584936164533707,0.12934650575118714,0.11479744444525923,-0.04133522367446603,0.00024120398336435924,0.43981125766663676,0.7753951437050658,-74275531405528.1,0.0,-1458941573209.069,0.7290727360364558,0.006622393044037754,0.6843678226177509,-0.007054987181099777,-0.04133522367446603,0.00024120398336435924,0.43981125766663676
13.2,-85.48383294774325,37.45794184156112,270.265205348316,285.92632674241605,0,9.64008225371969,214.6832495504536,11.03243369866292,19.0088401782772,0.016298438212345504,-0.00042733306237608,0.23898305950467688,0.13359889678585005,0.081097235149486,-0.002688394459227103,1.0963655375349013,1.0339189977913399,-74275531405528.1,0.0,-1458941573209.069,0.7307122879490706,0.008946569668506911,0.6825597251097707,-0.009577723606119727,0.081097235149486,-0.002688394459227103,1.0963655375349013
13.4,-85.48221114898018,37.45788809461407,270.2715137898406,285.9317977589751,0,9.649684221289045,215.06244600009956,11.032432121552539,19.009050459661353,0.008108993815341093,-0.0002687347352647848,0.03154220762297638,0.15240838910513232,-0.040947221985021834,0.0007929916355564719,-1.037204259408497,0.9485135956779936,-74275531405528.1,0.0,-1458941573209.069,0.7901813100121121,0.010148914161507903,0.6126492902881682,-0.013089841797692634,-0.040947221985021834,0.0007929916355564719,-1.037204259408497
13.51,-85.48059723103974,37.457823335211415,270.2958521994301,285.9543123441283,0,9.654842275225526,215.26835139763472,11.032426036950142,19.009861739981005,0.014671981276783581,-0.0005887218423145638,0.2212582689956198,0.13527425283427563,0.0596635223767502,-0.002908973700452551,1.7246914670240399,1.0555621549468437,21226733295637.293,0.0,1550982855466.396,0.7299967827776821,0.0137005128894257,0.683156400015649,-0.014639883826684236,0.0596635223767502,-0.002908973700452551,1.7246914670240399
13.7,-85.47899138951014,37.45774754478146,270.32213401130696,285.978665212151,0,9.663037462910298,215.61953260223407,11.032419466497172,19.010737800376898,0.00845179752418878,-0.00039889699975429154,0.13832532566766567,0.11393734452932847,-0.03273780922418325,0.0009990781187382775,-0.436489175410286,0.9277385704816755,93317982255.36911,0.0,-1625077287850.711,0.7281706083445911,0.01615564926760529,0.6849902273153273,-0.0171740683097053,-0.03273780922418325,0.0009990781187382775,-0.436489175410286
13.8,-85.47739364980269,37.45766073499553,270.32622576143996,285.9820440295621,0,9.666969318359119,215.80207290163648,11.03241844355964,19.010874192047996,0.015977397074493412,-0.0008680978593389331,0.04091750132999947,0.11614754861787817,0.07525599550304525,-0.004692008595846349,-0.9740782433766482,0.9047669776473146,-50743186048.83939,0.0,17251477568.49082,0.8255885092156674,0.015300256310853235,0.563619754989599,-0.022411769080961392,0.07525599550304525,-0.004692008595846349,-0.9740782433766482
14.0,-85.47580393715081,37.45756291776793,270.35274878755854,286.00662729284704,0,9.674426947852506,216.16237186624852,11.03241181280311,19.011758292918618,0.007948563259390112,-0.0004890861379891493,0.13261513059291066,0.09869667766849642,-0.04014416907551664,0.0018950586067489257,0.4584881463145576,0.6535814800820487,-50743186050.91998,0.0,17251477569.06962,0.7276475891165803,0.02106266911580053,0.6852628235851352,-0.02236543392546732,-0.04014416907551664,0.0018950586067489257,0.4584881463145576
14.1,-85.47422241660945,37.45745407525597,270.35681252916726,286.00998172171404,0,9.677768327319374,216.34011451823014,11.032410796867708,19.01189375097224,0.015815205413645173,-0.0010884251196330336,0.040637416087179336,0.07882755036406955,0.07866642154255088,-0.0059933898164388644,-0.9197771450573166,0.7440736248143511,-50743186043.98622,0.0,17251477569.05619,0.8251716788647132,0.01937910458487654,0.5638366719831863,-0.02836120646241735,0.07866642154255088,-0.0059933898164388644,-0.9197771450573166
14.3,-85.47264899305418,37.45733419985982,270.38366432756,286.0348781992302,0,9.684045763949957,216.69074666367496,11.03240408391811,19.012788810918664,0.007867117776356694,-0.0005993769807233175,0.13425899196363317,0.09869392303811997,-0.03974043818644218,0.002445240694548567,0.4681078793822667,0.6609423323293837,-50743186038.29545,0.0,17251477568.4675,0.7270266746107651,0.026077661792623528,0.6855562435298868,-0.02765514268690161,-0.03974043818644218,0.002445240694548567,0.4681078793822667
14.41,-85.47108384118052,37.457203324222526,270.3876846258338,286.03819369304097,0,9.687053398557447,216.88081797993723,11.032403078843542,19.012922820861128,0.014228653396938616,-0.0011897785208764844,0.03654816612559214,0.12148142162634248,0.0578321420052905,-0.005367286728665181,-0.8882802348912866,0.7759535794360006,-144061168291.80313,0.0,1642328765419.481,0.8250806260200628,0.023517389774775008,0.5634740997896627,-0.03443590874003321,0.0578321420052905,-0.005367286728665181,-0.8882802348912866
14.6,-85.46952684550305,37.457061451229926,270.4148603689029,286.0633988822908,0,9.691885330512319,217.20444565163936,11.032396284907774,19.01382867896343,0.008194714091901386,-0.0007466999610534549,0.14303022667951718,0.11915369938062421,-0.031757575289669715,0.002331992420121214,0.5604318976522384,0.8067355513592134,-144061168291.80313,0.0,1642328765419.481,0.7263795911397557,0.031179969209695433,0.6857913866875579,-0.03302533937570034,-0.031757575289669715,0.002331992420121214,0.5604318976522384
14.7,-85.46797812035481,37.4569085640106,270.4394904035122,286.08619899055856,0,9.694243603590284,217.37238167213866,11.032390127399122,19.014649680117074,0.015487251482397879,-0.001528872193290459,0.2463003460928812,0.1397744902484328,0.07292537390496519,-0.00782172232237007,1.032701194133644,1.1251902859778378,-144061168291.80313,0.0,1642328765419.481,0.7281786379695081,0.033661059972076954,0.6836206685173529,-0.03585506689877784,0.07292537390496519,-0.00782172232237007,1.032701194133644
14.9,-85.46643777988642,37.45674468593578,270.44569627825086,286.09158384104643,0,9.697932466868796,217.70326335739577,11.032388575930437,19.014856542608364,0.007701702341975606,-0.0008193903740760745,0.031029373693342965,0.15772006880004524,-0.038927745702111154,0.003547409096071904,-1.0763548619976855,1.0557874814360309,-144061168291.80313,0.0,1642328765419.481,0.7869853217763604,0.03260686315709452,0.6146935416442856,-0.04174620514990462,-0.038927745702111154,0.003547409096071904,-1.0763548619976855
15.0,-85.46490570806537,37.4565698006193,270.46940564356566,286.1135161401866,0,9.699684029643766,217.86619431635535,11.032382648589108,19.015646854785523,0.015320718210460936,-0.0017488531648268753,0.23709365314800918,0.13605959989473446,0.07619015868485357,-0.00929462790750804,2.0606427945466694,1.1386908725883873,-144061168291.80313,0.0,1642328765419.481,0.7285142227820013,0.038837245515711785,0.6826719488261119,-0.04144521505611089,0.07619015868485357,-0.00929462790750804,2.0606427945466694
15.2,-85.46338199867525,37.4563839219175,270.49515315177433,286.1373765130299,0,9.70237181946891,218.1870002605127,11.032376211712055,19.016505105059146,0.0076185469506384875,-0.0009293935089971261,0.128737541043336,0.11304939898615289,-0.03851085629911238,0.004097298279148761,-0.5417805605233678,1.0319959834330956,-144061168291.80313,0.0,1642328765419.481,0.7265031172514631,0.041596027344599926,0.6844806729328283,-0.04414973968752885,-0.03851085629911238,0.004097298279148761,-0.5417805605233678
15.3,-85.46186677531503,37.456187063929136,270.49829805707833,286.1398711711909,0,9.703318871113735,218.34486098772135,11.03237542548573,19.016609935235945,0.01515223360215124,-0.001968579883637716,0.03144905303997758,0.11336973046820804,0.07533686651512644,-0.010391863746405754,-0.9728848800335704,1.0202319346376327,-144061168291.80313,0.0,1642328765419.481,0.8458770072787282,0.034249649139781714,0.5294572311098561,-0.05471828320103515,0.07533686651512644,-0.010391863746405754,-0.9728848800335704
15.5,-85.46035994139835,37.45597921099532,270.5246022155759,286.16426035384546,0,9.704813550534473,218.65546287267864,11.032368849446106,19.017486740519196,0.007534169583394173,-0.0010392646690959887,0.13152079248783413,0.0918888326570253,-0.03809032009378547,0.004646576072708654,0.5003586972392845,0.7081023481491249,-144061168291.80313,0.0,1642328765419.481,0.7255240103165643,0.04700684563950297,0.6847808863150763,-0.04980366105751957,-0.03809032009378547,0.004646576072708654,0.5003586972392845
15.6,-85.4588616401527,37.45576038769938,270.5275997852747,286.1666180123623,0,9.705159438312679,218.80819022595023,11.03236810005368,19.017586659509156,0.014983012456468768,-0.002188232959383648,0.029975696987776353,0.072029543139194,0.07448842873074621,-0.011489682902876634,-1.0154509550005812,0.7882050003526693,-144061168291.80313,0.0,1642328765419.481,0.8494898118507849,0.037961410696922444,0.5226073112548195,-0.06170566491519138,0.07448842873074621,-0.011489682902876634,-1.0154509550005812
15.8,-85.45737174461873,37.455530558866805,270.55359412610414,286.1907169170532,0,9.705451234258522,219.1084638150948,11.032361601468473,19.018453137536806,0.007449477669894082,-0.0011491441628663718,0.12997170414735068,0.0930337933507626,-0.03766767393287323,0.0051954439825863535,0.499980035797869,0.7125762403610487,-144061168291.80313,0.0,1642328765419.481,0.7251598437260165,0.05247098393341691,0.6843233134435402,-0.0556021543644899,-0.03766767393287323,0.0051954439825863535,0.499980035797869
15.91,-85.45589048764953,37.45528978956509,270.5564922999282,286.19298292917415,0,9.70515674847293,219.2706541433393,11.032360876925017,19.01854974333094,0.013465972447270637,-0.0021888118337446225,0.026347034764223252,0.11302184775431152,0.054695407067059866,-0.009451524280711419,-0.9420424489375269,0.7789307227316262,-144061168291.80313,0.0,1642328765419.481,0.8515763012753099,0.04182572287211179,0.518016157059437,-0.06875807616462495,0.054695407067059866,-0.009451524280711419,-0.9420424489375269
16.1,-85.45441771190994,37.45503803510368,270.5830475705572,286.2176147850846,0,9.704293744548353,219.54582189342418,11.032354238107361,19.019434919018572,0.00775145126097911,-0.00132502348113922,0.13976458225783878,0.11080629814576297,-0.03007642729627099,0.004546254487396825,0.5969344604927093,0.7965991551756494,-144061168291.80313,0.0,1642328765419.481,0.7240946250874715,0.05808242820537327,0.6844985372522346,-0.061442314025050807,-0.03007642729627099,0.004546254487396825,0.5969344604927093
16.21,-85.45295350987571,37.45477532103378,270.60848900375976,286.2411951114096,0,9.703565010561551,219.70223234012272,11.032347877749059,19.02028296679199,0.013310927583890285,-0.002388309726342198,0.23128575638690105,0.1360550755167959,0.05054069384464731,-0.009666238592754395,0.8320106739005704,1.1663145004516047,-144061168291.80313,0.0,1642328765419.481,0.7245872717003958,0.06082890551409583,0.6834575565308838,-0.06448952135477368,0.05054069384464731,-0.009666238592754395,0.8320106739005704
16.4,-85.45149806383291,37.454501673148336,270.6125003672751,286.24451710376144,0,9.701337766311099,219.96736217026677,11.03234687490818,19.02041667890917,0.00766024233051245,-0.0014402520286475973,0.021112439554527854,0.1557533452122894,-0.029740448701988963,0.004989777356287433,-1.1061753517493458,1.0997450573644827,-144061168291.80313,0.0,1642328765419.481,0.8169293060376909,0.053047070214721624,0.5692245325811205,-0.07613112889098717,-0.029740448701988963,0.004989777356287433,-1.1061753517493458
16.5,-85.45005117587719,37.4542170374818,270.63810133082444,286.2682509671731,0,9.700111070216082,220.1043312027646,11.032340474667294,19.021270044360815,0.014468879557227659,-0.0028463566653868662,0.25600963549322475,0.13443344463145646,0.06808637226715111,-0.01406104636739249,2.348971959386936,1.2007225479256922,-144061168291.80313,0.0,1642328765419.481,0.7237268907303672,0.066566456149073,0.6832397012393757,-0.07051102892340459,0.06808637226715111,-0.01406104636739249,2.348971959386936
16.71,-85.44861297791302,37.45392147031004,270.6649750661221,286.29318961668963,0,9.69661737315813,220.3861572640814,11.032333756233468,19.022165835537404,0.006848561734175589,-0.0014074627226399231,0.12797016808414238,0.11351427223027777,-0.03628722772881923,0.006851875917842558,-0.6097117495670564,1.1274973388729657,-144061168291.80313,0.0,1642328765419.481,0.7224125773736975,0.06956041028168802,0.6840207370785097,-0.07346460794360159,-0.03628722772881923,0.006851875917842558,-0.6097117495670564
16.8,-85.44718363165298,37.45361498815025,270.66760024688773,286.2952047968513,0,9.69476240686503,220.5045198979427,11.032333099938278,19.022253341562923,0.015881625111546806,-0.003405357331034672,0.029168675173549617,0.11499867419841296,0.10036737085968037,-0.02219882898216391,-1.0977943656732545,1.1081726617438683,-144061168291.80313,0.0,1642328765419.481,0.8573182304202912,0.053414023003292545,0.5038780435701344,-0.09088075232720003,0.10036737085968037,-0.02219882898216391,-1.0977943656732545
17.01,-85.4457629386172,37.45329755776071,270.69424834885643,286.31993292690066,0,9.690013423783132,220.775021494724,11.032326437912786,19.023141611628546,0.006765204932299785,-0.0015115732835064464,0.1268957236604923,0.0919294312999602,-0.04341152466308088,0.009018019273943894,0.46536689755686794,0.759127554999633,-144061168291.80313,0.0,1642328765419.481,0.7217541387137526,0.07541770438584072,0.6834025195425278,-0.07965004329982359,-0.04341152466308088,0.009018019273943894,0.46536689755686794
17.11,-85.44435115013245,37.45296923614074,270.6968666497905,286.3219440805837,0,9.687343775459846,220.90102607307088,11.032325783337551,19.02322888832635,0.014117884847451323,-0.003283216199747655,0.02618300934045748,0.07142899161088857,0.07352679915151696,-0.01771642916241246,-1.0071271432003697,0.8531921956033471,-144061168291.80313,0.0,1642328765419.481,0.8558730900549396,0.05788618368599577,0.5044654248984385,-0.0982093607560822,0.07352679915151696,-0.01771642916241246,-1.0071271432003697
17.3,-85.44294805733166,37.45262997053045,270.7236344294899,286.3467881837501,0,9.681944023696332,221.13542212361364,11.032319091392628,19.024121147649666,0.007384698951502812,-0.0017856084751898666,0.14088305104953658,0.09310592929822745,-0.035437820504991925,0.007882145918725148,0.6036844300477807,0.7585848036264593,-144061168291.80313,0.0,1642328765419.481,0.7207946884946911,0.08139781159623896,0.6829711748481009,-0.08590569033416325,-0.035437820504991925,0.007882145918725148,0.6036844300477807
17.41,-85.44155396115309,37.45227982841064,270.7260634698026,286.3486229223004,0,9.67836121181027,221.26811091169353,11.03231848413255,19.02420211566009,0.01267360162338291,-0.0031831101801251776,0.02208218466121677,0.11859351209217257,0.048080933380728406,-0.01270456095395744,-1.0800078762574583,0.8905966864635845,-144061168291.80313,0.0,1642328765419.481,0.8621300561448939,0.06079121392502718,0.4915997272330432,-0.10661098810873622,0.048080933380728406,-0.01270456095395744,-1.0800078762574583
17.6,-85.44016860233968,37.451918757502625,270.75296185463577,286.37359337493507,0,9.671838252821594,221.49206935496062,11.032311759536341,19.02509872848786,0.007291362175833048,-0.001900373200071127,0.14157044649024053,0.11700486765609952,-0.028327576039735923,0.006751247263442325,0.628885588573805,0.9220308960011236,-144061168291.80313,0.0,1642328765419.481,0.7197660094109922,0.08747687930351909,0.682475943916846,-0.09225656214439766,-0.028327576039735923,0.006751247263442325,0.628885588573805
17.7,-85.43879215143842,37.45154679576805,270.778374169965,286.3971603906398,0,9.66823268727574,221.6072705583609,11.032305406457509,19.0259458056655,0.013764509012617348,-0.0037196173457233156,0.2541231532922038,0.13307884627978459,0.06473146836784438,-0.01819244145652227,1.1255270680196567,1.1653679978195182,-144061168291.80313,0.0,1642328765419.481,0.7203248774363707,0.09039857317134825,0.6810421147448124,-0.09561279652209677,0.06473146836784438,-0.01819244145652227,1.1255270680196567
17.9,-85.43742481879964,37.45116398140875,270.7825354038452,286.40063673631226,0,9.6599671980035,221.83212031178587,11.032304366149038,19.026084513461505,0.006836663193894334,-0.001914071796527146,0.02080616940105536,0.15526887971889805,-0.034639229093615186,0.00902772774598088,-1.1665849194557463,1.0384546748002879,12.830101473629501,0.0,-0.37167766417844417,0.8057440344068137,0.07916875152506471,0.5764218128339501,-0.11066505089239595,-0.034639229093615186,0.00902772774598088,-1.1665849194557463
18.01,-85.43606626457633,37.450770242866504,270.80685464642,286.4231731791901,0,9.655308430259389,221.95262027996372,11.032298286338394,19.026895154880666,0.012350492939234917,-0.0035794412931201497,0.22108402340718197,0.133551570466769,0.0501257249576403,-0.015139722696299623,1.8207077636920106,1.1256266796647503,3.687799144495878,0.0,0.36164957143736914,0.7201229243032969,0.09647549632270619,0.6794559864931843,-0.10224976733826459,0.0501257249576403,-0.015139722696299623,1.8207077636920106
18.2,-85.43471673872345,37.45036564882291,270.83277208993167,286.4472222755412,0,9.64654597866023,222.15543897824057,11.032291806977517,19.02775906966439,0.00710276764670278,-0.0021294423347073214,0.1364075974298614,0.10792322505513977,-0.02761960680280105,0.007631573465330767,-0.44566539988063997,0.996493888509961,3.687799144495878,0.0,0.36164957143736914,0.7183576751313208,0.09979457346777239,0.6803683885927716,-0.10536673806275129,-0.02761960680280105,0.007631573465330767,-0.44566539988063997
18.3,-85.4333764009974,37.44995022819917,270.8357792287307,286.44961142547015,0,9.641546575953903,222.25947103435806,11.032291055192816,19.027859307624357,0.013403377260487823,-0.004154206237387766,0.030071387990346494,0.11005040734195151,0.06300609613784953,-0.02024763902680416,-1.0633620943951338,0.9569429032595359,3.687799144495878,0.0,0.36164957143736914,0.8339580766910631,0.08042171181988585,0.5311318676741889,-0.12627435895949016,0.06300609613784953,-0.02024763902680416,-1.0633620943951338
18.5,-85.4320449709552,37.44952392015588,270.8610167592846,286.47302063133117,0,9.631160573543445,222.46189603116898,11.032284745810179,19.02870055864282,0.006657150210998021,-0.002131540216439028,0.12618765276954536,0.09245117711811487,-0.03373113524744913,0.010113330104743726,0.48058132389599606,0.6966686672381541,3.687799144495878,0.0,0.36164957143736914,0.7176971519170581,0.10605846552621068,0.679041137113491,-0.11209609327708962,-0.03373113524744913,0.010113330104743726,0.48058132389599606
18.6,-85.43072279795393,37.44908681409287,270.86396658018765,286.475358264098,0,9.625582231959704,222.56027997522926,11.032284008354953,19.028798886006257,0.01322173001270225,-0.004371060630106109,0.029498209030407032,0.07600655179096233,0.06564579801704136,-0.022395204136670493,-0.9668944373913695,0.7693000524497662,3.687799144495878,0.0,0.36164957143736914,0.8339195402821713,0.08509473204845759,0.5284961242982812,-0.13427186419674392,0.06564579801704136,-0.022395204136670493,-0.9668944373913695
18.8,-85.42940956115008,37.44863883964896,270.8906227921698,286.50011184227975,0,9.614058616464888,222.75136889183602,11.032277344301956,19.02968742640566,0.006566184019263256,-0.002239872219576008,0.13328105991064423,0.11206922055450366,-0.03327772996719509,0.010655942052650543,0.5189142544011879,0.7171521663575495,3.687799144495878,0.0,0.36164957143736914,0.715477192748035,0.11265846573215742,0.679202950362511,-0.1186752247738671,-0.03327772996719509,0.010655942052650543,0.5189142544011879
18.9,-85.42810566949885,37.448180116701735,270.89588279810465,286.50463652320957,0,9.607930057710307,222.8440653715732,11.032276029300473,19.029862759936822,0.013038916512329302,-0.004587229472221664,0.05260005934872082,0.17354165801525212,0.06472732493066184,-0.023473572526457057,-0.8068100056192513,1.0612697603419072,3.687799144495878,0.0,0.36164957143736914,0.7805807597835454,0.1027998471110708,0.6019600979117415,-0.13330382369523294,0.06472732493066184,-0.023473572526457057,-0.8068100056192513
19.1,-85.42681085175359,37.447710565367366,270.9385601030191,286.5445417201069,0,9.595425463610212,223.02374177495693,11.032265359974245,19.031285336767304,0.006474088726306967,-0.002347756671845469,0.2133865245721692,0.24210683305435846,-0.032824138930111206,0.011197364001880815,0.8039323261172304,0.9259430813995868,3.687799144495878,0.0,0.36164957143736914,0.7075793989431031,0.12038838546353794,0.6851120336219617,-0.12433636725905868,-0.032824138930111206,0.011197364001880815,0.8039323261172304
19.2,-85.4255252264651,37.447230196000376,270.981912714101,286.5850875878965,0,9.589110074511659,223.11071371301512,11.032254521821475,19.032730423803365,0.012856252884887728,-0.004803693669899292,0.4335261108190117,0.29804600420845884,0.06382164158580897,-0.024559369980538752,2.201395862468472,0.8982417987834486,3.687799144495878,0.0,0.36164957143736914,0.7067579705641012,0.12374687118750166,0.6847377980099769,-0.1277263907415574,0.06382164158580897,-0.024559369980538752,2.201395862468472
19.4,-85.42424913198104,37.4467392491934,271.05698944070764,286.6556333735999,0,9.575799922451477,223.27890573501014,11.032235752639822,19.03523298135692,0.0063804724202754185,-0.002454734034884618,0.3753836330332674,0.3485819392438489,-0.03237890232306166,0.011744798175073411,-0.2907123889287227,0.8424558834859088,3.687799144495878,0.0,0.36164957143736914,0.7015187249367486,0.1279401104769018,0.688859183370062,-0.13029133578641283,-0.03237890232306166,0.011744798175073411,-0.2907123889287227
19.5,-85.42298208644529,37.44623742577694,271.0982826943736,286.6942368547497,0,9.568902256951475,223.36011834377368,11.032225429326406,19.036609423145787,0.012670455357550556,-0.005018234164566522,0.41293253665969,0.3372571662864434,0.06289982937275047,-0.025635001296818675,0.3754890362642207,0.9832259144725739,3.687799144495878,0.0,0.36164957143736914,0.7059368951298424,0.13033338820866658,0.6830231841353723,-0.1347057457796968,0.06289982937275047,-0.025635001296818675,0.3754890362642207
19.7,-85.42172460779736,37.445725006819174,271.1596807888186,286.75185412085955,0,9.554338420270977,223.5167587098137,11.032210079802795,19.038656026293953,0.006287393239645689,-0.0025620947888427372,0.30699047222498277,0.3212950895709108,-0.031915310589524445,0.012280696878618966,-0.529710322173538,0.7404312346020887,3.687799144495878,0.0,0.36164957143736914,0.7015428661856655,0.13444506467282658,0.6861991453197709,-0.1374513166598874,-0.031915310589524445,0.012280696878618966,-0.529710322173538
19.8,-85.42047609377168,37.44520157362567,271.1753096399552,286.76619294348774,0,9.54662900696317,223.59217950532195,11.03220617259001,19.03917698799851,0.012485140256757,-0.0052343319350710935,0.15628851136568533,0.3103785462638814,0.06197747017111223,-0.026722371462283182,-1.507019608592953,0.7497935377320017,3.687799144495878,0.0,0.36164957143736914,0.7225157924213151,0.13328360978856996,0.6626357904486501,-0.1453279679897166,0.06197747017111223,-0.026722371462283182,-1.507019608592953
20.0,-85.41923719189712,37.44466760773911,271.2460833658961,286.83268111573045,0,9.531055687310324,223.73720556134907,11.032188479158526,19.041536112196535,0.006194509372790002,-0.0026698294327687317,0.3538686297045514,0.3114446503287252,-0.0314531544198351,0.012822512511511855,0.9879005916943339,0.7715621843127811,3.687799144495878,0.0,0.36164957143736914,0.6990879882607997,0.14151660713790973,0.6858891264157789,-0.14423987256733872,-0.0314531544198351,0.012822512511511855,0.9879005916943339
20.1,-85.41800765949628,37.44412280093915,271.2781414869612,286.86256014591606,0,9.522962541520014,223.80680437628936,11.03218046462826,19.042604716232038,0.012295324008419864,-0.005448067999651507,0.32058121065119394,0.333799166151199,0.06100814635629775,-0.02778238566882736,-0.33287419053357,0.6787314679041622,3.687799144495878,0.0,0.36164957143736914,0.70613370870901,0.14330020227776422,0.6771326533698083,-0.14943763646542932,0.06100814635629775,-0.02778238566882736,-0.33287419053357
20.3,-85.41678753368495,37.44356736524201,271.36182832568534,286.94126611881535,0,9.506429765559973,223.94015811381485,11.032159542918578,19.045394277522846,0.006100629056646789,-0.0027771784856867143,0.41843419362067075,0.39513309390999474,-0.030973474758865485,0.013354447569824013,0.48926491484738577,0.4584395965241603,3.687799144495878,0.0,0.36164957143736914,0.6965499365388667,0.14868450380908166,0.6854810767435185,-0.1510853985707899,-0.030973474758865485,0.013354447569824013,0.48926491484738577
20.4,-85.41557685137144,37.44300113290032,271.40369080682416,286.98042178214376,0,9.497894209975001,224.00390710958922,11.032149077298294,19.046789693560804,0.012106823135127601,-0.00566232341689966,0.4186248113882219,0.4145155144361986,0.060061940784809406,-0.028851449312130073,0.0019061776755114185,0.2750554706391023,3.687799144495878,0.0,0.36164957143736914,0.7011850466940697,0.1509715110650309,0.6791554556027898,-0.1558685351966318,0.060061940784809406,-0.028851449312130073,0.0019061776755114185
20.51,-85.41437530925607,37.4424242564028,271.4546631573614,287.028195119475,0,9.488348336249008,224.0717720395872,11.032136334210659,19.048488771912044,0.010923110139706206,-0.005244331795624374,0.4633850048838252,0.4058216870301329,-0.010761027231103296,0.0037999238297752235,0.4069108499600193,0.3806203260318686,563443449148.5758,0.0,-1146787611611.604,0.6984244949098991,0.1548722444872945,0.6804004756459312,-0.15897485819496857,-0.010761027231103296,0.0037999238297752235,0.4069108499600193
20.7,-85.41318367383057,37.44183674847402,271.54031340651494,287.1087683950235,0,9.471331260063305,224.1834088667562,11.03211492164837,19.051343780217167,0.00627176539736466,-0.0030921469936037367,0.45079078501873876,0.5301569875696912,-0.024480761801797906,0.0113272884316877,-0.06628536771098219,1.8081230993458228,563443449148.5758,0.0,-1146787611611.604,0.6939625598233192,0.15928443906878112,0.6832814043680039,-0.1617743968583978,-0.024480761801797906,0.0113272884316877,-0.06628536771098219
20.9,-85.41200138137741,37.44123847207405,271.5957763857436,287.1607947977404,0,9.452386930748661,224.29326263823438,11.032101055903563,19.053192546191454,0.005911462265828525,-0.0029913819998483968,0.27731489614325355,0.5171475545280806,-0.0018015156576806795,0.0005038249687767013,-0.8673794443774291,3.1678612537372777,563443449148.5758,0.0,-1146787611611.604,0.6959631731195163,0.16214380715076507,0.6795347401660814,-0.16606379608899066,-0.0018015156576806795,0.0005038249687767013,-0.8673794443774291
21.0,-85.41082854796932,37.440629490398265,271.6997844287526,287.25873916822536,0,9.443416577585273,224.3452378494807,11.032075053892811,19.05665948095842,0.011728334080913616,-0.006089816757821522,1.0400804300900142,0.4891209116013209,0.058168718150850084,-0.030984347579730814,7.6276553394674975,3.1173633948035038,563443449148.5758,0.0,-1146787611611.604,0.6912801789641166,0.1666416671490108,0.6825526576341989,-0.16877244590758608,0.058168718150850084,-0.030984347579730814,7.6276553394674975
21.1,-85.40966545946866,37.440009876876985,271.7351389714996,287.29175248401964,0,9.433587048984613,224.39524216856668,11.032066215257124,19.057837965716654,0.011630885006610305,-0.006196135212803622,0.3535454274702892,0.43624054637087895,-0.0009744907430330983,-0.0010631845498209843,-6.865350026197152,3.378085516797912,563443449148.5758,0.0,-1146787611611.604,0.6986947788612721,0.16811637772438479,0.6731362126055123,-0.17449965275592016,-0.0009744907430330983,-0.0010631845498209843,-6.865350026197152
21.3,-85.40851200152686,37.43937972517522,271.7998076522006,287.3524952324133,0,9.413353756789146,224.4893293283274,11.03205004808695,19.059993588406687,0.005767289708984456,-0.0031507585088164205,0.32334340350502205,0.48948289022864194,-0.02931797648812935,0.015226883519936063,-0.15101011982633636,3.5622544246040633,563443449148.5758,0.0,-1146787611611.604,0.6920496706888123,0.17315779897007677,0.6781269589456204,-0.1767129239940021,-0.02931797648812935,0.015226883519936063,-0.15101011982633636
21.4,-85.40736814958387,37.438738859192334,271.81840581133497,287.36966339441767,0,9.402844921386642,224.53340798736608,11.032045398547165,19.0606135270445,0.011438519429845218,-0.006408659828878308,0.18598159134342437,0.337370489261684,0.056712297208608826,-0.032579013200619567,-1.3736181216160062,2.3007065908061906,563443449148.5758,0.0,-1146787611611.604,0.7078278401703263,0.1722073308707902,0.6596836590743417,-0.1847751439573429,0.056712297208608826,-0.032579013200619567,-1.3736181216160062
21.6,-85.40623387886761,37.43808744306177,271.9271190916509,287.47207390327685,0,9.382038112473875,224.61562566862588,11.032018220227087,19.06423730305503,0.005671353581320124,-0.003257080652829767,0.5435664015797592,0.6095585031558801,-0.028835829242625063,0.01575789588024248,1.7879240511816488,3.797976682020748,-1058385830779.7816,0.0,1220871407557.4165,0.6873192151515944,0.181131770156884,0.6790992612812854,-0.18332422548709276,-0.028835829242625063,0.01575789588024248,1.7879240511816488
21.8,-85.40510932439337,37.43742536115071,271.9830243381707,287.5245364217135,0,9.360038138624455,224.68991180060564,11.032004243915457,19.066100811272356,0.005622772371225457,-0.0033104095552971675,0.2795262325989266,0.7743783062871733,-0.0002429060504733323,-0.00026664451233700265,-1.3202008449041678,4.79839583616639,806365596968.8337,0.0,2414632917949.316,0.6901424524070032,0.1837344257043786,0.6742206431065292,-0.188073338370295,-0.0002429060504733323,-0.00026664451233700265,-1.3202008449041678
21.9,-85.40399458096326,37.43675285805979,272.1544924981951,287.68632317489613,0,9.350226709833542,224.72407635352403,11.03196137687545,19.071816416606502,0.011147434301080021,-0.0067250309091805615,1.7146816002440712,1.0430343540778133,0.055246619298546816,-0.034146213538834666,14.35155367645175,4.905659436088248,1273083001376.0024,0.0,1215484483911.1953,0.6838026984629629,0.18885009986898316,0.6786305706968827,-0.19028940556391577,0.055246619298546816,-0.034146213538834666,14.35155367645175
22.01,-85.4028892831657,37.43606961862276,272.2807118213085,287.80531412105904,0,9.338622115317586,224.75936147849427,11.031929822044672,19.07602372737695,0.01004816179591768,-0.00621126760936925,1.147448391939871,1.2939619322886757,-0.009993386410566464,0.004670575452829979,-5.156665530038044,5.085144332754103,636541500688.016,0.0,607742241954.6993,0.6836771390206312,0.19225976827208688,0.6766749404199744,-0.19424926278406313,-0.009993386410566464,0.004670575452829979,-5.156665530038044
22.21,-85.4017938953749,37.435375807906134,272.58665375938295,288.0943553250653,0,9.317787581159998,224.81734819391818,11.031853336560154,19.086221791979433,0.005476938954061003,-0.003469053583131666,1.529709690372277,1.681635891360603,-0.02285611420928347,0.013711070131187969,1.9113064921620373,5.263009020045924,0.025943210073519386,0.0,-1.519170092465013,0.680553972404712,0.1965616024997739,0.6776757911633422,-0.19739642635576152,-0.02285611420928347,0.013711070131187969,1.9113064921620373
22.31,-85.4007082717502,37.43467149120891,272.7664734665825,288.26408838141316,0,9.307399413942523,224.84335436165958,11.031808381633354,19.092215782219416,0.0108562362468947,-0.0070431669722383185,1.7981970719955982,1.8411544590084525,0.05379297292833811,-0.03574113389106729,2.684873816233268,2.68702294504599,0.09311946035797539,0.0,-1.525796271483016,0.6804684907101289,0.19995299377720463,0.6755890949546651,-0.20139714051730892,0.05379297292833811,-0.03574113389106729,2.684873816233268
22.5,-85.39963233623573,37.433956584062194,273.18788619936754,288.6624663422321,0,9.288025255769519,224.88727439718247,11.031703028450158,19.106262873312254,0.00566281849725516,-0.0037626691932389454,2.217961751500139,2.1098827769985524,-0.027333777629681602,0.017265777784207112,2.2092877868659886,1.695386212231601,0.13949378816542168,0.0,-1.233440818145711,0.6779600501717586,0.2040753439607137,0.6758850254903066,-0.20470187267436155,-0.027333777629681602,0.017265777784207112,2.2092877868659886
22.7,-85.39856604255968,37.43323111222887,273.69034931649816,289.13763017396013,0,9.267613398223489,224.92572553980804,11.031577412670876,19.123011643883274,0.005331468380234147,-0.003627359166635826,2.512315585653093,2.441445982042194,-0.0016567505851050703,0.0006765501330155998,1.471769170764777,2.86061875000859,0.05455879767578305,0.0,-0.6541867548270408,0.6766598002580871,0.2078282411820887,0.6749252269148137,-0.2083623645379184,-0.0016567505851050703,0.0006765501330155998,1.471769170764777
22.81,-85.3975097042339,37.43249526170324,273.9643728790383,289.3966205265827,0,9.256101927167604,224.94346972623535,11.03150890678024,19.132145762634607,0.009603075688925326,-0.006689550232992663,2.491123295819568,2.6761488869164034,0.038832793715374556,-0.02783810060324412,-0.19265718030477627,2.539388152016618,116166625031.77852,0.0,623405576593.5292,0.676219525794382,0.21131632827276065,0.6730500860718206,-0.21231143157742324,0.038832793715374556,-0.02783810060324412,-0.19265718030477627
22.9,-85.39646321455336,37.43174893871068,274.25124855035875,289.6678081692819,0,9.24717363829193,224.9561900051043,11.03143718786241,19.14170828501196,0.011627663117034615,-0.008292477695053764,3.187507459116058,2.5360916477653097,0.022495415867881022,-0.017810305134012258,7.737601814405459,3.5515620753716597,232333250063.53116,0.0,1246811153187.435,0.6749614758446854,0.21506029551091715,0.6719440646869765,-0.21602603859781694,0.022495415867881022,-0.017810305134012258,7.737601814405459
23.1,-85.39542638659564,37.43099207970732,274.84559879614056,290.23018656478285,0,9.226466544080347,224.97866237724656,11.031288600300964,19.161519959871352,0.00518413978859648,-0.003784295016799834,2.971751228909014,3.2427749883932906,-0.032217616642190215,0.02254091339126933,-1.0787811510352043,12.31332618787969,123953607739.63298,0.0,2502336993511.866,0.6729785829420247,0.21902525280920654,0.6715266448806169,-0.219498817191778,-0.032217616642190215,0.02254091339126933,-1.0787811510352043
23.3,-85.39439940322038,37.4302248313796,275.1491332843781,290.5172468675635,0,9.20226010777742,224.99313866120556,11.031212716678905,19.171637776145936,0.005134916876343727,-0.0038362416386306243,1.5176724411875906,3.3010741870023947,-0.00024611456126376243,-0.00025973310915395183,-7.270393938607144,15.536721324925892,123953607739.63298,0.0,2502336993511.866,0.6724441577395858,0.22250965714195794,0.6696101755311238,-0.22345138179399315,-0.00024611456126376243,-0.00025973310915395183,-7.270393938607144
23.4,-85.39338243706884,37.429447200643956,275.7537059853818,291.0895045281806,0,9.19446664599207,224.9973774103485,11.031061573503655,19.191790199512727,0.010169661515391443,-0.007776307356408717,6.045727010037596,3.112289061836392,0.05034744639047823,-0.039400657177781774,45.28054568850102,15.067389740288434,123953607739.63298,0.0,2502336993511.866,0.6704804351946013,0.22648851196936703,0.6690621692327308,-0.22696861824655984,0.05034744639047823,-0.039400657177781774,45.28054568850102
23.6,-85.39237515056328,37.42865906464645,276.31023387178107,291.6163705890162,0,9.171923870258162,224.99985518102872,11.030922441532054,19.210341129059366,0.00503643252777401,-0.003940679987515182,2.7826394319961483,3.0800091925873465,-0.0256661449380868,0.0191781368444674,-16.315437890207008,15.984995029201167,123953607739.63298,0.0,2502336993511.866,0.6692681729029784,0.23018489160442904,0.6677318696166299,-0.23071449610816896,-0.0256661449380868,0.0191781368444674,-16.315437890207008
23.7,-85.3913782159067,37.427860510762386,276.53459161852595,291.8285671034452,0,9.159901392705136,224.9980940924433,11.030866352095368,19.21781972061753,0.009969346565839246,-0.007985538840671495,2.2435774674489064,3.311810917146751,0.04932914038065341,-0.04044858853156399,-5.390619645472533,14.664711590563845,123953607739.63298,0.0,2502336993511.866,0.6690704409946387,0.23359465154292874,0.6652720890519537,-0.23492835351703878,0.04932914038065341,-0.04044858853156399,-5.390619645472533
23.8,-85.39039113508206,37.427051806595905,276.81562460289035,292.0944934938422,0,9.148306213142776,224.99433309597197,11.030796093849277,19.22718748676301,0.009870808246432576,-0.008087041664808111,2.8103298436439728,2.642361020089395,-0.0009853831940666855,-0.0010150282413661498,5.667523761950583,5.653964190293274,123953607739.63298,0.0,2502336993511.866,0.6673811420878832,0.23739957563980488,0.6643577053746651,-0.2384799613821318,-0.0009853831940666855,-0.0010150282413661498,5.667523761950583
24.0,-85.38941418985199,37.426232579979605,277.3509620044733,292.6014884883937,0,9.124435981147034,224.98081213686774,11.03066225949888,19.245032066815778,0.0048847261503226665,-0.004096133081503709,2.676687007914618,2.7626330467018234,-0.024930410480549635,0.01995454291652208,-0.6682141786467756,3.0764398450263846,123953607739.63298,0.0,2502336993511.866,0.6652921836514368,0.24145137245825127,0.6637095948239036,-0.24202710354218473,-0.024930410480549635,0.01995454291652208,-0.6682141786467756
24.1,-85.38844716175831,37.42540322897418,277.6208081052008,292.8568947601071,0,9.11231926788499,224.9710527751641,11.0305947979737,19.254026936840027,0.00967028093683084,-0.00829351005421574,2.698461007275303,2.860699311389882,0.047855547865081054,-0.04197376972711971,0.21773999360684607,3.29847333892031,123953607739.63298,0.0,2502336993511.866,0.6647140265694008,0.2448408810008145,0.6615832859011257,-0.2459995156273853,0.047855547865081054,-0.04197376972711971,0.21773999360684607
24.3,-85.38748953212138,37.42456343186799,278.29760828932797,293.49817733032734,0,9.089057586037809,224.94553845617358,11.030425597927668,19.2765869429776,0.004788148184644587,-0.004198985530976544,3.384000920635811,2.958636187663976,-0.024410663760931352,0.020472622616196055,3.427699566802552,2.7311258453273104,123953607739.63298,0.0,2502336993511.866,0.6624094408365251,0.24883970733938957,0.6611639956683278,-0.24930845066660018,-0.024410663760931352,0.020472622616196055,3.427699566802552
24.4,-85.38654259203987,37.42371351717664,278.57099984343995,293.7570389675995,0,9.07657999510314,224.9297846328522,11.03035725003914,19.285699994781332,0.009469400815049968,-0.008499146913507796,2.7339155411198717,3.0447735010055723,0.04681252630405481,-0.043001613825313444,-6.500853795159532,2.9477805774231007,123953607739.63298,0.0,2502336993511.866,0.6618765570796753,0.25229197968047523,0.6588032193762636,-0.25346892968711676,0.04681252630405481,-0.043001613825313444,-6.500853795159532
24.6,-85.38560509239011,37.42285357364263,279.2310072564529,294.3826199693881,0,9.052371332556314,224.8922871593628,11.030192248185886,19.307700241881765,0.0046874982488275705,-0.004299717670050935,3.3000370650648376,3.0941088121828955,-0.023909512831111646,0.020997146217284008,2.8306076197247894,3.073223213050625,6327934480.726496,0.0,-11577612928.011871,0.6595982304271699,0.25620380974598056,0.6583280775777558,-0.25669811951350097,-0.023909512831111646,0.020997146217284008,2.8306076197247894
24.71,-85.38467811382573,37.42198321023487,279.57281681961564,294.7064776832078,0,9.03862899354893,224.8682612775204,11.030106795795096,19.319093893987187,0.008427077857995591,-0.007912394615966026,3.107359665115584,2.7483224166173192,0.033996178265164,-0.032842517690137366,-1.7516127268114043,3.6777510375447897,2564721468.204529,0.0,1257702888507.9312,0.658682508554866,0.25979478520318416,0.6562367451383911,-0.26076302812183827,0.033996178265164,-0.032842517690137366,-1.7516127268114043
24.9,-85.38376121677713,37.421102806148355,280.13239722650997,295.23699902048713,0,9.014231019021729,224.82107954624416,11.029966900693372,19.337746574217,0.004825773939985955,-0.004633705718504244,2.945160036285965,3.4135170215202506,-0.018954231147419367,0.017256257355062216,-0.8536822569980063,11.187211522052914,88628307699.70453,0.0,-1264960867212.5752,0.6567392110385012,0.26365295088148205,0.6552490532769147,-0.2642525465453848,-0.018954231147419367,0.017256257355062216,-0.8536822569980063
25.1,-85.38285450145112,37.42021198080362,280.4634097730513,295.5507204001214,0,8.985495933958338,224.76364584287256,11.029884147556738,19.348780325768374,0.00453357663005243,-0.004454126723665234,1.65506273270663,3.314416545016499,-0.0014609865496676049,0.0008978949741950389,-6.450486517896582,13.876431666488969,179454104312.96378,0.0,29783593997.927734,0.6557264747299063,0.2671935420976052,0.6532132906204366,-0.26822154715168917,-0.0014609865496676049,0.0008978949741950389,-6.450486517896582
25.2,-85.38195750783039,37.41931133384644,281.0694002574889,296.12546545285966,0,8.975355301623052,224.7319440989134,11.029732649935628,19.368980008582962,0.008969936207279452,-0.009006469571844115,6.059904844376107,3.3780943582441907,0.04436359577227117,-0.045523428481789786,44.048421116695714,14.768472745298869,179454104312.96378,0.0,29783593997.927734,0.6536906910692676,0.2709770915575256,0.6523209466784483,-0.27154608961452714,0.04436359577227117,-0.045523428481789786,44.048421116695714
25.4,-85.38107122567311,37.41840055514728,281.6303069804064,296.6575362832147,0,8.94821553070147,224.66257787119167,11.029592423254899,19.38767689934688,0.004431410786409644,-0.0045538934957889575,2.8045336145874087,3.0774507446176544,-0.02269262710434912,0.02226288038027587,-16.27685614894355,16.58148061921707,179454104312.96378,0.0,29783593997.927734,0.6521596532107639,0.27473228578474823,0.6506837456726374,-0.27535544481438906,-0.02269262710434912,0.02226288038027587,-16.27685614894355
25.5,-85.38019506451249,37.41747939480096,281.9728816447214,296.9824093385711,0,8.935096251230048,224.6249164703611,11.02950677958882,19.39909605482405,0.008761611606189365,-0.009211603463228227,3.4257466431500427,3.966355940144132,0.043302008197796595,-0.04657709967439203,6.212130285626253,24.60669615697298,179454104312.96378,0.0,29783593997.927734,0.6510483191466893,0.27823527085060135,0.6486367581657634,-0.279269719352407,0.043302008197796595,-0.04657709967439203,6.212130285626253
25.7,-85.37932953365636,37.41654814312613,282.2612687556854,297.25586928794667,0,8.904557128310831,224.54364546385537,11.029434682811079,19.408708958522848,0.004327654280658082,-0.004656258374140537,1.4419355548201958,3.3264350450248488,-0.022169786627656493,0.02277672544543853,-9.91905544164927,18.88203820566685,179454104312.96378,0.0,29783593997.927734,0.649653267926481,0.28187099453872444,0.6467955571908605,-0.28311637379063487,-0.022169786627656493,0.02277672544543853,-9.91905544164927
25.8,-85.37847378218669,37.415607170664856,282.8712275208833,297.8347575493773,0,8.893782090320075,224.50003947021156,11.029282193119778,19.429040917362776,0.008557514696718605,-0.009409724612723247,6.099587651978508,3.3984692185365994,0.04229860416060463,-0.04753466238582642,46.57652097158246,16.303283465736442,179454104312.96378,0.0,29783593997.927734,0.6473599390467493,0.2857036766337833,0.6460114524486256,-0.2863000555021687,0.04229860416060463,-0.04753466238582642,46.57652097158246
26.01,-85.37762840895928,37.4146561681822,283.47189205023255,298.4049421699653,0,8.864007371422817,224.40203165560322,11.029132026987442,19.449063068341083,0.004025586797172834,-0.0045285832507534355,2.860307282615578,3.3472180866377235,-0.021580609045455966,0.023243530295094246,-15.42514461601389,15.070817214047803,179454104312.96378,0.0,29783593997.927734,0.6457372012974187,0.2893564645742056,0.6443707465002667,-0.2899700748773608,-0.021580609045455966,0.023243530295094246,-15.42514461601389
26.1,-85.37679379260322,37.41369474666568,283.7567132559826,298.6751643353349,0,8.851380837055933,224.3573630475999,11.029060821686004,19.45855710853275,0.009273515067320673,-0.010682461294603896,3.164680063889596,3.6302895993481883,0.05831031411275386,-0.06837642270944967,3.3819197919335364,13.399249822863755,1299165254.673638,0.0,1267525737429.6387,0.6447773876866537,0.2927921858183293,0.6419016718156516,-0.2941038931601742,0.05831031411275386,-0.06837642270944967,3.3819197919335364
26.2,-85.37596938152053,37.412723427324906,284.07366215271367,298.97594142495467,0,8.837259906350814,224.30585847190287,11.028981584461821,19.469122071757123,0.008244110826893978,-0.00971319340777675,3.169488967310553,3.0417788398803203,-0.010294042404267172,0.009692678868271664,0.04808903420956959,4.683515770226123,1299165254.673638,0.0,1267525737429.6387,0.6429847125754433,0.29643075327124563,0.6404053505024856,-0.29762468808401105,-0.010294042404267172,0.009692678868271664,0.04808903420956959
26.4,-85.3751555738858,37.411742431591016,284.6451221573353,299.5186158304643,0,8.80809645155065,224.19694427119282,11.028838719460666,19.488170738577843,0.004069038173639698,-0.004904978669451072,2.8573000231082903,3.0635437535377523,-0.020875363266271475,0.024041073691628476,-1.560944721011318,1.7864784681252572,1299165254.673638,0.0,1267525737429.6387,0.6407279782606345,0.3002993483428936,0.6393004615143911,-0.30096989744218566,-0.020875363266271475,0.024041073691628476,-1.560944721011318
26.5,-85.37435180764572,37.410751031116284,284.9608242890851,299.8183043424845,0,8.793669325470615,224.13953948679304,11.028759793927728,19.498694142969505,0.008037662400823705,-0.00991400474731549,3.157021317497834,2.7219006771984198,0.039686242271839506,-0.05009026077864347,2.997212943895395,2.6225049084261847,1299165254.673638,0.0,1267525737429.6387,0.6396007623525228,0.3036179117917542,0.6370202738254956,-0.30484782953561734,0.039686242271839506,-0.05009026077864347,2.997212943895395
26.7,-85.37355875051873,37.40975000777358,285.55465056952715,300.38241025608863,0,8.764157845355884,224.018847306362,11.028611337357617,19.518488352317572,0.003965285634990337,-0.005005116713512355,2.969131402210234,3.259644462353152,-0.020361883829166913,0.02454444016901576,-0.939449576438004,11.415963825645687,1299165254.673638,0.0,1267525737429.6387,0.6372731681505137,0.30749090946590746,0.6359041025449658,-0.30815292002140415,-0.020361883829166913,0.02454444016901576,-0.939449576438004
26.9,-85.37277627999455,37.40873861365595,285.84594702254924,300.65899301972803,0,8.731257634545745,223.89032966901024,11.028538513244362,19.528198234084975,0.003912352620858442,-0.005056970588164252,1.4564822651104288,3.270195641785576,-0.00026466507065947645,-0.0002592693732594862,-7.563245685499053,17.000079404146746,1299165254.673638,0.0,1267525737429.6387,0.6361963055141343,0.3108011112127773,0.6334096440849561,-0.3121684687780596,-0.00026466507065947645,-0.0002592693732594862,-7.563245685499053
27.0,-85.37200445333396,37.40771770107606,286.4317689743622,301.21566155458436,0,8.719077450211282,223.82314338951878,11.02839205775641,19.54772563247874,0.007718266605962644,-0.010209125798894401,5.858219518129802,3.222596366296309,0.038059139851041486,-0.051521552107300764,44.01737253019311,16.411553667634703,1299165254.673638,0.0,1267525737429.6387,0.633752568240613,0.3146687718878898,0.6323695319238126,-0.3153569744614071,0.038059139851041486,-0.051521552107300764,44.01737253019311
27.1,-85.37124297756822,37.406686422565755,286.7227724534966,301.4920522336712,0,8.703863605886283,223.75400942197925,11.028319306886626,19.557425748449887,0.00761475765742137,-0.0103127851030392,2.910034791343564,3.210813650111162,-0.0010350894854127312,-0.0010365930414479715,-29.481847267861962,16.245443639633926,1299165254.673638,0.0,1267525737429.6387,0.6326576207709659,0.31788784837937645,0.6298767422636227,-0.3192913094472147,-0.0010350894854127312,-0.0010365930414479715,-29.481847267861962
27.3,-85.37049229949884,37.40564564087555,287.3065811908001,302.0469746195372,0,8.673204767092841,223.60991079962054,11.0281733547023,19.57688603969334,0.0037533903469011555,-0.005203908451036928,2.9190436865175786,3.4957724834536967,-0.01930683655260114,0.025544383260011454,0.045044475870073146,14.762412137077467,1299165254.673638,0.0,1267525737429.6387,0.6301712918589233,0.32175620545326516,0.6287876505700982,-0.3224642269457311,-0.01930683655260114,0.025544383260011454,0.045044475870073146
27.4,-85.36975186569715,37.404594528974094,287.5976008194355,302.32346621223934,0,8.65774556599126,223.5349525491609,11.02810059979514,19.586586693981186,0.00740433801681222,-0.010511119014538163,2.9101962863541697,2.903401839289416,0.03650947669911142,-0.05307210563501349,-0.08847400163409092,5.974018313271499,1299165254.673638,0.0,1267525737429.6387,0.6290572611184465,0.3248985796174813,0.6262842333487276,-0.32633714813900405,0.03650947669911142,-0.05307210563501349,-0.08847400163409092
27.6,-85.36902255250394,37.40353387004774,288.1738574748772,302.87136954405014,0,8.626536653598883,223.37923482686017,11.027956535631281,19.605795249162572,0.003646565966093311,-0.005303294631779845,2.88128327720837,2.892550732551546,-0.01878886025359428,0.026039121913791225,-0.14456504572899725,0.15986560528616972,3967462485.875,0.0,668586125154.9001,0.6265154181158359,0.3288027245750282,0.6251175120324405,-0.3295380028548287,-0.01878886025359428,0.026039121913791225,-0.14456504572899725
27.8,-85.36830394602907,37.40246304749995,288.75313209490827,303.42225174706743,0,8.595060011551368,223.2158053548394,11.027811716976272,19.625104403163608,0.003593032374311646,-0.005354112738942282,2.8963731001553685,2.8890549083735415,-0.0002676679589083262,-0.00025409053581218656,0.07544911473499365,0.2403418979581165,8206664392.7875,0.0,1311874987261.3313,0.6246400596846949,0.33233275248899247,0.6232510185497173,-0.33307342334225754,-0.0002676679589083262,-0.00025409053581218656,0.07544911473499365
27.9,-85.36759524215124,37.40138221495084,289.0387099196172,303.6937034925374,0,8.579174033712953,223.13120773855115,11.027740322520096,19.63462366398724,0.007087038778337424,-0.010808325491069812,2.8557782470892943,2.877189910057474,0.03494006404025853,-0.05454212752127647,-0.4059485306607511,0.2695150978338411,8206664392.7875,0.0,1311874987261.3313,0.62356702519308,0.3352685144851192,0.6207512832183609,-0.33678930011143804,0.03494006404025853,-0.05454212752127647,-0.4059485306607511
28.0,-85.36689698651742,37.40029156623662,289.3288641913941,303.96953887623073,0,8.56326494222575,223.0446931867965,11.02766778395215,19.64429547304647,0.006982556338215219,-0.010906487142250244,2.9015427177688067,2.5826009213076286,-0.0010448244012220406,-0.000981616511804305,0.45764470679511743,1.6824592694361453,8206664392.7875,0.0,1311874987261.3313,0.6217023108863122,0.33865834344337303,0.6189337149677752,-0.34017321989098204,-0.0010448244012220406,-0.000981616511804305,0.45764470679511743
28.2,-85.36621023454273,37.399191025409074,289.89904265492737,304.5119772215973,0,8.531146354983381,222.8659287422218,11.027525239336267,19.663301421830912,0.003433759873416887,-0.005502704137718715,2.850892317666488,3.1085201195864967,-0.01774398232399172,0.02701891502265774,-0.25325200051159324,9.902640405549969,8206664392.7875,0.0,1311874987261.3313,0.6190469200036489,0.3426122221041119,0.6176401047725691,-0.3433925990399451,-0.01774398232399172,0.02701891502265774,-0.25325200051159324
28.4,-85.36553323141001,37.398080696735065,290.1807087571993,304.7798130429786,0,8.495889790185657,222.67954380099016,11.0274548228107,19.672690291906644,0.0033850156636106143,-0.005551643370047563,1.4083305113595708,3.0464831270279573,-0.00024372104903136547,-0.0002446961616442431,-7.212809031534613,12.800777494083894,8206664392.7875,0.0,1311874987261.3313,0.6179832150948216,0.345396172777616,0.6151365845049505,-0.3469945418810313,-0.00024372104903136547,-0.0002446961616442431,-7.212809031534613
28.5,-85.36486774206934,37.396960264695956,290.73330484748254,305.30566294977143,0,8.482289073159915,222.58350394593364,11.027316673788128,19.69111016158275,0.006654893406761081,-0.011204320391087048,5.525960902832516,2.9352255648082295,0.0326987774315042,-0.056526770210394046,41.17630391472886,13.11019703288494,8206664392.7875,0.0,1311874987261.3313,0.6152709537431543,0.34934767764730346,0.6138216938957798,-0.3501725027830435,0.0326987774315042,-0.056526770210394046,41.17630391472886
28.7,-85.36421272123802,37.395829813987106,291.2424276773347,305.7902035389313,0,8.448956378632584,222.3857508088605,11.027189393080667,19.708080922577825,0.0032751041565859513,-0.0056522535442482735,2.5456141492608797,2.80816455353184,-0.016898946250875707,0.027760334234193974,-14.901733767858234,13.318518886328388,8206664392.7875,0.0,1311874987261.3313,0.6134337616448434,0.3526220379557146,0.611861587730845,-0.3535280977259168,-0.016898946250875707,0.027760334234193974,-14.901733767858234
28.8,-85.3635674034,37.39469004951727,291.47695240059505,306.01325994876925,0,8.432008223328172,222.28404631583962,11.027130761899851,19.715898413353166,0.006453178380212329,-0.011397644698334214,2.3452472326033225,2.9331567628926623,0.03178074223626333,-0.057453911540858583,-2.003669166575544,12.05833442765836,8206664392.7875,0.0,1311874987261.3313,0.6125829929294834,0.35513075688547335,0.6091714014293746,-0.35711962417105975,0.03178074223626333,-0.057453911540858583,-2.003669166575544
28.9,-85.36293263280562,37.393540566408134,291.69850797337904,306.22398125826135,0,8.414878653080097,222.1804625388317,11.027075373006655,19.723283599112634,0.006347705943739037,-0.011494831091383407,2.215555727839889,2.021491363071058,-0.0010547243647329434,-0.0009718639304919506,-1.2969150476343627,4.888732447303045,8206664392.7875,0.0,1311874987261.3313,0.6107789117123781,0.35830381963985825,0.6071697031285811,-0.3604336907694419,-0.0010547243647329434,-0.0009718639304919506,-1.2969150476343627
29.1,-85.36230900347131,37.39238043999367,292.1051671540734,306.6110607781176,0,8.380107565583263,221.96767563099903,11.02697370821148,19.736838905135777,0.003118146671567912,-0.005800632072307994,2.0332959034717812,2.234889276205741,-0.016147796360855397,0.02847099509537666,-0.9112991218405256,7.198317427971195,262733715371.1875,0.0,3481147876083.925,0.607916867609964,0.3622207193777756,0.6059510858840136,-0.3633958090632321,-0.016147796360855397,0.02847099509537666,-0.9112991218405256
29.3,-85.36169511917932,37.39121137581967,292.2986925033311,306.7951227137222,0,8.34302152353511,221.74742791358565,11.026925326874167,19.74328975011104,0.003069421459969146,-0.005845320870001579,0.9676267462884914,2.1311862099773053,-0.00024362605799383178,-0.00022344398846792574,-5.328345785916468,8.583212124521864,262733715371.1875,0.0,3481147876083.925,0.6072280125680168,0.3644998770585078,0.6030989746218853,-0.36699537760993617,-0.00024362605799383178,-0.00022344398846792574,-5.328345785916468
29.4,-85.36109227347734,37.390031739643085,292.659951284066,307.13902004337467,0,8.3270594822842,221.63451843546756,11.026835012178983,19.755331709468866,0.006028457019766748,-0.01179636176587476,3.612587807348936,2.1007419644324306,0.029590355597976657,-0.05951040895873307,26.44961061060501,8.797165344061149,262733715371.1875,0.0,3481147876083.925,0.6042348976551543,0.3684217027809521,0.6020232062093871,-0.3697751973307822,0.029590355597976657,-0.05951040895873307,26.44961061060501
29.6,-85.36049937967825,37.388842177431535,293.0253025614475,307.48685876789074,0,8.291445561402941,221.40315333108774,11.026743674359638,19.767510085381584,0.0029644689954721605,-0.005947811057751467,1.8267563869076493,1.8598244100025187,-0.015319940121472721,0.029242753540616048,-8.929157102206307,9.849444397122328,262733715371.1875,0.0,3481147876083.925,0.6023574485793222,0.37145242112745763,0.6001700910048371,-0.37280620279550714,-0.015319940121472721,0.029242753540616048,-8.929157102206307
29.7,-85.35991687085979,37.3876442353627,293.23163560289436,307.68318684650086,0,8.273820013931235,221.28470798768143,11.026692091099276,19.77438785342981,0.005825088184536877,-0.011979420688348596,2.06333041446844,2.3851845251082002,0.028606191890647777,-0.06031609630597258,2.365740275607959,14.315257512841004,262733715371.1875,0.0,3481147876083.925,0.6013689218230895,0.37385420247084183,0.5974990943702333,-0.3762755471552421,0.028606191890647777,-0.06031609630597258,2.365740275607959
29.9,-85.35934492986435,37.38643691982376,293.39737397806874,307.84083954154335,0,8.235999163953377,221.04231803929207,11.026650656505483,19.779912465935624,0.0028597049772116734,-0.0060365776947080224,0.8286918758719283,2.054086980275991,-0.014826916036626071,0.029714214968202975,-6.173192692982581,10.662644351583538,262733715371.1875,0.0,3481147876083.925,0.5999230757165613,0.3765868829225644,0.595106874774484,-0.37963460120172726,-0.014826916036626071,0.029714214968202975,-6.173192692982581
30.0,-85.3587829192986,37.38521870741077,293.7568164588709,308.1831332427452,0,8.219808180708444,220.91838420715567,11.026560795885281,19.791893881962363,0.005620105657442229,-0.012182124129864573,3.5944248080215346,2.0217634415997505,0.027604006802305167,-0.06145546435156463,27.65732932149567,9.460990347359253,262733715371.1875,0.0,3481147876083.925,0.5967004830540227,0.38043436887868765,0.594477482301049,-0.38185697261668106,0.027604006802305167,-0.06145546435156463,27.65732932149567
30.2,-85.35823103153324,37.38399114492816,294.1482390194317,308.5559542724616,0,8.184068900255577,220.6650663675043,11.02646294024514,19.804941300647723,0.0027594388268426073,-0.006137812413058463,1.9571128028039266,1.9359538625819774,-0.014303334152998162,0.03022155858403066,-8.186560026088069,9.04930791051819,262733715371.1875,0.0,3481147876083.925,0.5947467279111267,0.3833814059404171,0.592705192852453,-0.38470193862767804,-0.014303334152998162,0.03022155858403066,-8.186560026088069
30.3,-85.35769027870273,37.38275566938805,294.31474863610697,308.7143938592545,0,8.165869863734368,220.53569361851822,11.026421312840974,19.810491621203564,0.0054075283050280315,-0.012354755401133668,1.6650961667528226,2.0433701508118105,0.026480894781853864,-0.06216942988075117,-2.9201663605109993,8.083222154804238,262733715371.1875,0.0,3481147876083.925,0.594203255190379,0.38541695194973835,0.5894100340042878,-0.38855125335789986,0.026480894781853864,-0.06216942988075117,-2.9201663605109993
30.4,-85.35716012270504,37.38151089800971,294.4781755874701,308.86990471484273,0,8.147617728507905,220.40451928982168,11.026380456103132,19.815939186249004,0.005301559976942484,-0.012447713783388091,1.6342695136313872,1.444253293799734,-0.0010596832808554939,-0.0009295838225442517,-0.30826653121436054,4.085945983575007,262733715371.1875,0.0,3481147876083.925,0.5923194082906562,0.3883035665846779,0.5874360537265032,-0.3915315332410129,-0.0010596832808554939,-0.0009295838225442517,-0.30826653121436054
30.6,-85.35663961520139,37.380255518218924,294.7513322543057,309.1300491616673,0,8.110517626063595,220.13678929290208,11.026312166936423,19.825044408476856,0.002602537518256972,-0.006276898953920717,1.3657833341778576,1.165192677633217,-0.013495112293427371,0.030854074147336433,-1.3424308972676289,2.484434972018355,262733715371.1875,0.0,3481147876083.925,0.5894670750569634,0.3917669196281413,0.5865416531461325,-0.3937208874741953,-0.013495112293427371,0.030854074147336433,-1.3424308972676289
30.7,-85.35613071761591,37.37899212764745,294.81120331960204,309.18684271215875,0,8.091175055477708,220.00024552374597,11.026297199170099,19.827040110653403,0.00508897585476131,-0.012633905714736484,0.5987106529636449,0.8432505273887495,0.024864383365043916,-0.06357006760815903,-7.6707268121422905,2.407014438657728,262733715371.1875,0.0,3481147876083.925,0.5926365361610019,0.391191491029388,0.5793077296732813,-0.4001920884951154,0.024864383365043916,-0.06357006760815903,-7.6707268121422905
30.91,-85.35563154113552,37.37771927413233,294.92917786854395,309.2990425011645,0,8.050433925457158,219.70772426727808,11.026267705532863,19.83097259561813,0.0023770308589952114,-0.006061207214849021,0.561783566390007,0.5638926013643285,-0.012914023789362324,0.03129856428517827,-0.1758432693982748,2.7098669038200462,262733715371.1875,0.0,3481147876083.925,0.5875624418904651,0.39608817920654155,0.5807924950573161,-0.40070513954485043,-0.012914023789362324,0.03129856428517827,-0.1758432693982748
31.11,-85.35514412670958,37.37643784571532,294.9401807885052,309.3092448965632,0,8.010577571516478,219.42189622015724,11.026264954802873,19.83133935961684,0.0024370721297373252,-0.006407142085045359,0.055014599806213677,0.3409128949148042,0.0003002063537105705,-0.0017296743509816947,-2.5338448329189758,2.4710502419208886,4.798624532947014,0.0,1.2311218923838183,0.6170745208295123,0.37576374213023134,0.5449570675351062,-0.42549082291731094,0.0003002063537105705,-0.0017296743509816947,-2.5338448329189758
31.21,-85.3546658250497,37.37514728064228,294.9638944690409,309.3315691175071,0,7.990821341109457,219.27635088452203,11.02625902638274,19.832129815634694,0.0047830165988215646,-0.012905650730416867,0.23713680535706436,0.28072837832829023,0.02345944469084206,-0.06498508645371416,1.8212220555084808,0.9850132806939549,4.368290255198684,0.0,1.223666166696897,0.5969912091005961,0.392006994311327,0.5633464037616878,-0.4154188753973284,0.02345944469084206,-0.06498508645371416,1.8212220555084808
31.3,-85.35419980662948,37.373848117362506,294.9864334018795,309.3527757090458,0,7.973049121891111,219.1438674006834,11.02625339164953,19.832881113395985,0.005177982446803585,-0.01443514755305528,0.25043258709539906,0.23219234180453663,0.004388509422022454,-0.01699440914042683,0.14773090820371917,0.9934075375583392,4.368290255198684,0.0,1.223666166696897,0.5956931823191876,0.3942947876413511,0.5603305855665875,-0.41917882562923675,0.004388509422022454,-0.01699440914042683,0.14773090820371917
31.5,-85.3537421516843,37.37254006452816,295.04600588091466,309.40929791532074,0,7.933645564074849,218.8444214991993,11.026238498529771,19.834866862697154,0.002288274725898995,-0.006540264171732725,0.2978623951759129,0.39805000140377905,-0.014448538604523001,0.039474416906612915,0.23714904040257,1.0525433986763715,4.368290255198684,0.0,1.223666166696897,0.5833484614796092,0.4044065954283844,0.5699361503591689,-0.4139234984597597,-0.014448538604523001,0.039474416906612915,0.23714904040257
31.6,-85.35329739021107,37.3712230209936,295.077889702197,309.43942004303295,0,7.913966283155863,218.6921055835275,11.02623052757445,19.8359296567399,0.004447614732327957,-0.013170435345628374,0.3188382128234889,0.37264959036467266,0.021593400064289312,-0.06630171173895555,0.20975817647575704,1.6830497809323712,4.368290255198684,0.0,1.223666166696897,0.5868220029993305,0.40324686909106394,0.5617944273155453,-0.4212112543621151,0.021593400064289312,-0.06630171173895555,0.20975817647575704
31.8,-85.35286163196798,37.36989716581475,295.2548298639261,309.6078725758203,0,7.87575248962879,218.38232166987942,11.026186292534017,19.841827662130868,0.0021787912154280853,-0.006629275894241028,0.8847008086453942,0.35659432564566973,-0.011344117584499398,0.03270579725693685,2.829312979109537,2.214188296359332,4.368290255198684,0.0,1.223666166696897,0.5750175990949511,0.41302069464701524,0.5704999943319428,-0.41629127181773595,-0.011344117584499398,0.03270579725693685,2.829312979109537
32.0,-85.35243639647445,37.36856340824848,295.23276746644075,309.58655480479763,0,7.835579387809247,218.06571433346755,11.02619180813339,19.84109224888136,0.002126177467687292,-0.006668787831358737,-0.11031198742671261,0.3090305965461085,-0.0002630687387039674,-0.0001975596855885449,-4.975063980360552,2.623000278709477,4.368290255198684,0.0,1.223666166696897,0.5887105586736783,-0.4037792044822116,-0.5525395782147925,-0.430211862505042,-0.0002630687387039674,-0.0001975596855885449,-4.975063980360552
32.1,-85.35202445301066,37.36721955775192,295.24977201221134,309.60249522406525,0,7.815789707880017,217.90486942364905,11.026187556996947,19.84165906707371,0.00411943463788583,-0.013438504965534812,0.17004545770589388,0.2562499954240102,0.019932571701985098,-0.06769717134175979,2.8035744513260252,2.686895602840967,4.368290255198684,0.0,1.223666166696897,0.5915234038363304,0.4027053998283852,0.5446462532425203,-0.43736584513634164,0.019932571701985098,-0.06769717134175979,2.8035744513260252
32.2,-85.35162291061755,37.36586683398185,295.24392750582984,309.5966476995493,0,7.795785208116568,217.74233985920674,11.026189018123542,19.841464250194328,0.004015423931065186,-0.013527237700756508,-0.058445063814928366,0.13627377269319205,-0.0010401070682064294,-0.0008873273522169412,-2.28490521520819,2.4784376998199664,4.368290255198684,0.0,1.223666166696897,0.6296910940680458,-0.36997539913959077,-0.49575478812187085,-0.4699303354084803,-0.0010401070682064294,-0.0008873273522169412,-2.28490521520819
32.41,-85.35123115809657,37.36450606679403,295.25544075400126,309.6073549976775,0,7.754066994823455,217.39557644805382,11.0261861398115,19.841848025133373,0.001865488195156679,-0.006479843751519615,0.05482499129243642,0.24946854749439734,-0.01023778921861224,0.03355901880589097,0.5393812147969913,2.266759091492737,4.368290255198684,0.0,1.223666166696897,0.5984350816646324,0.39844866042699945,0.529341712460971,-0.45045695630754906,-0.01023778921861224,0.03355901880589097,0.5393812147969913
32.6,-85.3508520040094,37.36313562624253,295.20133846553375,309.55549110535566,0,7.715751672871702,217.07552064172225,11.026199665383617,19.84004461551779,0.001995547827211863,-0.0072128450078795744,-0.2847488866710687,0.21832383232797697,0.0006845243792377936,-0.003857901349262848,-1.7872309366499812,3.050422374545223,4.368290255198684,0.0,1.223666166696897,0.5700718243873378,-0.4225174007906766,-0.5552859807521612,-0.4337679571486275,0.0006845243792377936,-0.003857901349262848,-1.7872309366499812
32.7,-85.35048256667788,37.361757062579116,295.1337027513293,309.4907240368893,0,7.6952274989805325,216.90467764296184,11.026216574312167,19.837790091710975,0.003694373315141722,-0.013785636634153579,-0.6763571420446982,0.24216909634875278,0.016988254879298347,-0.0657279162627391,-3.91608255373624,2.7687143709288327,4.368290255198684,0.0,1.223666166696897,0.5668798120467449,-0.4258846705736763,-0.5550440522497415,-0.4349662356164954,0.016988254879298347,-0.0657279162627391,-3.91608255373624
32.8,-85.35012595418377,37.36036887625249,295.13329482437376,309.4900691086152,0,7.675401213701284,216.732194442381,11.026216676293906,19.837776494145793,0.003566124941159135,-0.013881863266292606,-0.004079269555177466,0.2642010122909973,-0.0012824837398259445,-0.0009622663213903197,6.72277872489559,3.0050567467311735,4.368290255198684,0.0,1.223666166696897,0.7826115261786117,-0.08469545533072229,-0.10920295698526582,-0.6069766001456564,-0.0012824837398259445,-0.0009622663213903197,6.72277872489559
33.0,-85.3497798843686,37.35897390790771,295.0974534997271,309.45562673796303,0,7.635483146710776,216.38233817188154,11.026225636625067,19.836581783324235,0.001730349075828006,-0.006974841723881199,-0.17920662323319647,0.23690439751842862,-0.009178879326655514,0.03453510771205654,-0.8756367683900826,2.6856523144185487,4.368290255198684,0.0,1.223666166696897,0.5680012002126701,-0.4268472373521422,-0.545680577372639,-0.4443070784942252,-0.009178879326655514,0.03453510771205654,-0.8756367683900826
33.2,-85.34944578483339,37.357568858385484,295.1305014945133,309.48687978521826,0,7.596380165263412,216.02601402597276,11.026217374626372,19.837683383150445,0.0016704976760450782,-0.007025247611132002,0.1652399739307929,0.15904290177168667,-0.0002992569989146346,-0.00025202943625401194,1.7222329858199226,2.0419553210540817,4.368290255198684,0.0,1.223666166696897,0.5668098973731237,0.4286915943046671,0.5425808045592991,-0.4478349335817554,-0.0002992569989146346,-0.00025202943625401194,1.7222329858199226
33.3,-85.34912260293868,37.35615789872147,295.14526712790916,309.5007010816785,0,7.576863344193286,215.8454462506239,11.026213683218023,19.838175570930304,0.0032318189471427124,-0.014109596640140245,0.14765633395882943,0.22073583105224043,0.01561321271097723,-0.07084349029008646,-0.17583639971964465,0.7637279323305222,4.368290255198684,0.0,1.223666166696897,0.5793565641668565,0.4186137613709976,0.5253385053026807,-0.4616578226283464,0.01561321271097723,-0.07084349029008646,-0.17583639971964465
33.5,-85.34881061580415,37.35473589014562,295.20268872113536,309.5552021774832,0,7.538222943864554,215.4795394208042,11.026199327819716,19.840089624037844,0.0015599356726170078,-0.007110042879254663,0.28710796613097095,0.3410462686148891,-0.008359416372628404,0.03499776880442741,0.6972581608606977,3.0414124752077876,4.368290255198684,0.0,1.223666166696897,0.5579154249629663,0.4375455883558763,0.5439496696710411,-0.4487794486866218,-0.008359416372628404,0.03499776880442741,0.6972581608606977
33.61,-85.34850969030865,37.35330829408145,295.23822909744433,309.58883970108553,0,7.517079859648817,215.27559793865814,11.026190442725639,19.841274303248145,0.0027356863228078653,-0.01297814603789382,0.32309433008157035,0.45948519142647515,0.010688642274462395,-0.053346392351265336,0.32714876318726893,4.235280964128722,4.368290255198684,0.0,1.223666166696897,0.5602980585782503,0.4362294064405245,0.5377691718101373,-0.45450446462122934,0.010688642274462395,-0.053346392351265336,0.32714876318726893
33.7,-85.34821990308996,37.35186883214541,295.1679631821102,309.52157797955795,0,7.498826588273335,215.10732521075317,11.026208009204472,19.83893210607034,0.0032198579854516834,-0.015994021511525944,-0.7807323926012898,0.5402735055459141,0.005379685140486664,-0.03350972748480011,-12.264741363142427,5.507051028138578,-175554707628066.5,0.0,-503564553607.64075,0.5528047616370483,-0.4432476968203473,-0.5413735276943853,-0.4526069799357942,0.005379685140486664,-0.03350972748480011,-12.264741363142427
33.9,-85.34794140054458,37.350424596146134,295.31947450241734,309.66581558061444,0,7.4614737364549,214.72886979090566,11.026170131374395,19.84398248341391,0.0013925127268521762,-0.0072211799963996385,0.7575566015356278,0.7256114329550177,-0.009136726292997732,0.04386420757563247,7.691444970684752,6.690583569821082,-87842105625405.48,0.0,-982972715579.2328,0.547926607071731,0.44799048159266763,0.5426332555684984,-0.4523605990980683,-0.009136726292997732,0.04386420757563247,7.691444970684752
34.1,-85.34767400882768,37.34896801808375,295.20902328764936,309.56023372064584,0,7.421697941132948,214.3442404412284,11.026197744178088,19.840300776254978,0.0013369585845168595,-0.007282890311905884,-0.5522560738398773,0.7849997975737522,-0.0002777707116765795,-0.00030855157753122397,-6.549063376877432,8.458332800079878,-87842105625405.48,0.0,-982972715579.2328,0.5468970338822564,-0.44957088119990474,-0.5396134536074397,-0.4556390872102421,-0.0002777707116765795,-0.00030855157753122397,-6.549063376877432
34.2,-85.34741894385301,37.34750640014921,295.08764336907757,309.4442363719232,0,7.401227093044527,214.14963186814148,11.02622808915773,19.836254778969252,0.002550649746666486,-0.014616179345452243,-1.2137991857178858,1.1380569202799944,0.012136911621496093,-0.07333289033546254,-6.615431118779991,12.338208766090144,-87842105625405.48,0.0,-982972715579.2328,0.544571993866676,-0.45220786540242064,-0.5379560151921005,-0.457769282153025,0.012136911621496093,-0.07333289033546254,-6.615431118779991
34.4,-85.34717496129265,37.34603682472351,295.2116960799496,309.56229137733754,0,7.364120335968361,213.75587017127594,11.026197075980011,19.840389869331652,0.001219912801815352,-0.007347877128474224,0.6202635543601919,1.0637937475931287,-0.0066536847242558116,0.03634151108489087,9.170313700390585,16.131126339386554,-87842105625405.48,0.0,-982972715579.2328,0.5426220911417166,0.45447175702255826,0.5361451189163023,-0.45996206336614703,-0.0066536847242558116,0.03634151108489087,9.170313700390585
34.5,-85.34694181657694,37.34455463437704,294.95708165547705,309.3192465026997,0,7.342487791137911,213.5567345479524,11.02626072958613,19.831902721849236,0.0023314471570756393,-0.014821903464721021,-2.5461442447254607,1.1979568043031008,0.011115343552602715,-0.0747402633624669,-31.66407799085608,16.51514405834341,-87842105625405.48,0.0,-982972715579.2328,0.5390258079529116,-0.45815827962935635,-0.535858747138826,-0.460866111015539,0.011115343552602715,-0.0747402633624669,-31.66407799085608
34.61,-85.34671920489437,37.343064231868844,294.9995453328247,309.3594974650655,0,7.321987578074132,213.33596313235807,11.026250113666794,19.833318177760823,0.002023742568853374,-0.01354911371087369,0.3860334304332292,0.9999612402039635,-0.002797314438384245,0.011570815944066712,26.656160683260957,18.084991090889254,-87842105625405.48,0.0,-982972715579.2328,0.5450754875558249,0.45333460608153076,0.526075161769167,-0.46970775165439616,-0.002797314438384245,0.011570815944066712,26.656160683260957
34.8,-85.34651155119144,37.341568330145904,294.76715725109733,309.13766634495664,0,7.283701196069506,212.95041498136132,11.026308210687226,19.82557190836991,0.0010929142259454513,-0.007873166962842822,-1.2230951669862193,0.9700528851686236,-0.004899096541620704,0.029873403937004925,-8.469097881155093,16.94505485574483,-1220649729605.9644,0.0,236869034574.5892,0.5349973958290768,-0.4628439901216324,-0.531531847665264,-0.4658616985564955,-0.004899096541620704,0.029873403937004925,-8.469097881155093
34.9,-85.34631170017256,37.34006074234237,294.78949675132793,309.1587301888239,0,7.265092411759639,212.74536750193124,11.026302625812168,19.8263165583776,0.001998510188769814,-0.015075878035375252,0.2233950023060029,0.4865436004988936,0.009055959628243496,-0.07202711072532328,14.464901692922018,10.954512082638468,-2441299459374.0767,0.0,473738069149.6759,0.5496038798248715,0.44988697232453395,0.5134612660361654,-0.4815545822590108,0.009055959628243496,-0.07202711072532328,14.464901692922018
35.1,-85.34612590629999,37.338548711778905,294.69535577646496,309.06873206996073,0,7.226693358820713,212.33091568811068,11.026326161055884,19.823178525882167,0.0009289693628744412,-0.007560152817305158,-0.4707048743148267,0.43130880166396723,-0.005347704129476787,0.03757862609034994,-3.470499383104099,6.09839562921097,-2441299459374.0767,0.0,473738069149.6759,0.5338804000680338,-0.4647132176013315,-0.525310968036366,-0.4722941145838149,-0.005347704129476787,0.03757862609034994,-3.470499383104099
35.3,-85.34595196379365,37.33702748196188,294.6696729713604,309.0440119252328,0,7.189266982055608,211.91071624109645,11.02633258175716,19.822322432378677,0.0008697125316814621,-0.0076061490851133074,-0.12841402552283218,0.21767192217849804,-0.0002962841559649017,-0.00022998133904075153,1.7114542439600093,4.93092000504388,-2441299459374.0767,0.0,473738069149.6759,0.5431103859233279,-0.4565210486666432,-0.5116958706813848,-0.4845482192250236,-0.0002962841559649017,-0.00022998133904075153,1.7114542439600093
35.4,-85.34578593663112,37.3354943165827,294.6805746827561,309.05417552326367,0,7.170903910944101,211.69848445965792,11.02632985632931,19.822685822758537,0.0016602716253544022,-0.01533165379186108,0.10901711395717784,0.18793207621421634,0.007905590936729288,-0.07725504706747664,2.3743113948000665,2.117627898879818,-2441299459374.0767,0.0,473738069149.6759,0.5618726383861777,0.4379940706987784,0.48798529767162807,-0.5043120874240491,0.007905590936729288,-0.07725504706747664,2.3743113948000665
35.5,-85.34563133854748,37.333952949516984,294.66515865927164,309.0392476031252,0,7.152355252020797,211.48484386190574,11.026333710335182,19.822171955309056,0.0015459808363970987,-0.015413670657124848,-0.15416023484476463,0.10085296161924706,-0.001142907889573019,-0.0008201686526376644,-2.631773488019387,1.46379891103228,-2441299459374.0767,0.0,473738069149.6759,0.5499453680649589,-0.45005462764748205,-0.49745290505703565,-0.49754550699136973,-0.001142907889573019,-0.0008201686526376644,-2.631773488019387
35.7,-85.34549159303528,37.33240553482389,294.6501965513905,309.0247559113128,0,7.115656751971413,211.05337426006213,11.026337450862153,19.821673218379683,0.0006987275610015231,-0.007737073465463485,-0.07481053940580189,0.1713085156929771,-0.004236266376977818,0.03838298595830627,0.39674847719480805,1.9328831684555183,-2441299459374.0767,0.0,473738069149.6759,0.5482975293292097,-0.45168000044827356,-0.49430892846184843,-0.5010126543006984,-0.004236266376977818,0.03838298595830627,0.39674847719480805
