time,position_x,position_y,position_z,ground_station_distance,comm_range_status,wind_speed,wind_angle,battery_voltage,battery_current,velocity_x,velocity_y,velocity_z,velocity_total,acceleration_x,acceleration_y,acceleration_z,acceleration_total,angular_x,angular_y,angular_z,orientation_w,orientation_x,orientation_y,orientation_z,linear_acceleration_x,linear_acceleration_y,linear_acceleration_z
0.0,-61.94941561112009,14.958047239999999,269.3324017,276.769607936427,0,7.693324017,180.0,11.032666899575,18.977746723333333,0.008319961612599514,0.011740089713079271,0.012359152323995204,0.03277820418860107,0.0839905999768576,0.11739171940607927,0.2606566705736669,0.25332218713007265,2069389249791651.5,0.0,-7865350010553.2,0.8329796115178173,-0.15954967825381508,0.3086222314711902,0.43062882533159946,0.0839905999768576,0.11739171940607927,0.2606566705736669
0.2,-61.94775161879757,14.960395257942615,269.3348735304648,276.7717678098139,0,7.733346068691314,180.59998222238025,11.032666281617383,18.97782911768216,0.008319961612599514,0.011740089713079271,0.012359152323995204,0.03277820418860107,0.0839905999768576,0.11739171940607927,0.2606566705736669,0.25332218713007265,2069389249791651.5,0.0,-7865350010553.2,0.8329796115178173,-0.15954967825381508,0.3086222314711902,0.43062882533159946,0.0839905999768576,0.11739171940607927,0.2606566705736669
0.3,-61.94607971663654,14.962743184107984,269.3387160124029,276.7752597669512,0,7.753378160529021,180.89994000119998,11.032665320996898,18.97795720041343,0.01671902161028527,0.023479261653687196,0.03842481938136189,0.03277820418860107,0.0839905999768576,0.11739171940607927,0.2606566705736669,0.25332218713007265,2069389249791651.5,0.0,-7865350010553.2,0.7950123729041431,-0.2049107497914925,0.3974647155174661,0.40986425980784413,0.0839905999768576,0.11739171940607927,0.2606566705736669
0.5,-61.94440021150609,14.965091006720026,269.3430996973098,276.77927671875585,0,7.793389335514455,181.4997222376539,11.032664225075672,18.97810332324366,0.00839752565223506,0.011739113060214024,0.0219184245344195,0.03277820418860107,-0.04160747979025105,-0.05870074296736586,-0.08253197423471195,0.25332218713007265,2069389249791651.5,0.0,-7865350010553.2,0.7829053904630643,-0.21690820100628666,0.4218573705698229,0.4025497991752179,-0.04160747979025105,-0.05870074296736586,-0.08253197423471195
0.6,-61.942712890445655,14.967438664004922,269.3474454367244,276.7832550276085,0,7.813402467326133,181.79952003839853,11.03266313864082,18.978248181224146,0.016873210604373415,0.023476572848952777,0.043457394145889346,0.04034006179596474,0.08475684952138357,0.11737459788738756,0.2153896961146985,0.25332218713007265,2069389249791651.5,0.0,-7865350010553.2,0.7843450820563999,-0.21549162305916822,0.42025497791321353,0.4021839208427275,0.08475684952138357,0.11737459788738756,0.2153896961146985
0.81,-61.941018040664154,14.96978615419229,269.35001968225174,276.7855077785785,0,7.855323107926513,182.42881919217493,11.032662495079437,18.97833398940839,0.008070713245241935,0.011178524701754048,0.012258312034960212,0.033669769432489775,-0.041916654091102276,-0.05856213403427964,-0.14856705767109105,0.24576928657016706,2069389249791651.5,0.0,-7865350010553.2,0.8321902153863118,-0.16183621606784485,0.31645092276322734,0.42559052863806524,-0.041916654091102276,-0.05856213403427964,-0.14856705767109105
0.9,-61.93931545953917,14.972133345516303,269.35422728558433,276.789348301423,0,7.873299371251866,182.698380291575,11.032661443178604,18.978474242852812,0.018917568055343288,0.02607990360014394,0.04675114813987119,0.03468423278976474,0.1205206090011262,0.16557087664877662,0.383253734499011,0.2640020707460045,2069389249791651.5,0.0,-7865350010553.2,0.7886382944116781,-0.21128884380265867,0.4142842708567998,0.4022128888942084,0.1205206090011262,0.16557087664877662,0.383253734499011
1.1,-61.937605414616115,14.974480256216848,269.3537903985242,276.78866744412176,0,7.913094505659592,183.29704301743396,11.032661552400368,18.97845967995081,0.00855022461529131,0.011734553502726893,-0.0021844353005917574,0.029629938696376222,-0.051836717200259876,-0.07172675048708521,-0.24467791720231466,0.23032827953786889,2134854265078457.5,0.0,-3986514377389.1875,0.8888337230117965,0.03382062310023249,-0.06648919832863605,0.452117202499215,-0.051836717200259876,-0.07172675048708521,-0.24467791720231466
1.2,-61.93588782360746,14.976826804540675,269.35495257300516,276.78954101851025,0,7.93297394030789,183.59616122861277,11.032661261856749,18.97849841910017,0.017175910086564296,0.02346548323826528,0.01162174480953128,0.0320594749350125,0.08625685471272998,0.11730929735538403,0.13806180110123056,0.2369240395760261,2134854265078457.5,0.0,-3986514377389.1875,0.8757427381230216,-0.08548737466711724,0.16851509220422609,0.44426256774200307,0.08625685471272998,0.11730929735538403,0.13806180110123056
1.4,-61.93416263439181,14.979172908742504,269.359482061114,276.7936897736018,0,7.972681049899613,184.19390487759242,11.032660129484722,18.978649402037135,0.008625946078240078,0.011730521009143405,0.022647440544290024,0.02417521500819601,-0.0427498200416211,-0.05867481114560939,0.05512847867379373,0.16457781135983915,2134854265078457.5,0.0,-3986514377389.1875,0.7831972687864167,-0.2163118696428059,0.4275626403158925,0.3962340240605719,-0.0427498200416211,-0.05867481114560939,0.05512847867379373
1.5,-61.93243012501318,14.981518577086202,269.3604082151129,276.79433034995037,0,7.992480347098327,184.49250374910727,11.032659897946221,18.978680273837096,0.01732509378634005,0.02345668343698646,0.009261539988756331,0.030772127407373666,0.08699147708099962,0.11726162427843044,-0.1338590055553368,0.17619450292339475,2134854265078457.5,0.0,-3986514377389.1875,0.88224768640113,-0.06899555816484333,0.1367348863316689,0.44517659827672945,0.08699147708099962,0.11726162427843044,-0.1338590055553368
1.7,-61.930690173680034,14.9838637178459,269.3622850874611,276.7958944508426,0,8.031987549008603,185.08908923171782,11.032659428728135,18.978742836248703,0.008699756665713211,0.011725703798486368,0.00938436174095614,0.027959256472910633,-0.04312668560313419,-0.05865489819250047,0.0006141087609990403,0.1681016539505335,2134854265078457.5,0.0,-3986514377389.1875,0.8570757519194521,-0.12665842117116025,0.25168536288789894,0.43131575200324124,-0.04312668560313419,-0.05865489819250047,0.0006141087609990403
1.8,-61.92894271876454,14.986208269307145,269.3660495308367,276.7992937570546,0,8.051719642160014,185.38704932800138,11.03265848761729,18.978868317694555,0.017474549154954375,0.023445514612454567,0.03764443375587231,0.03217218966803915,0.08774792489241155,0.11719810813968189,0.28260072014916143,0.21463576028165302,2134854265078457.5,0.0,-3986514377389.1875,0.8027517425292187,-0.19719868006130914,0.39292370167568874,0.40288122953279293,0.08774792489241155,0.11719810813968189,0.28260072014916143
2.0,-61.927188008801686,14.988552219768037,269.3678748981585,276.8008044415192,0,8.091017410571707,185.98223801800413,11.03265803127546,18.97892916327195,0.008773549814264927,0.011719752304459877,0.009126836609141266,0.02948286206846217,-0.04350499670344725,-0.05862881153997346,-0.14258798573365525,0.20761434462482536,2134854265078457.5,0.0,-3986514377389.1875,0.859715864193279,-0.12315397977070885,0.24603456369303683,0.4303355941464945,-0.04350499670344725,-0.05862881153997346,-0.14258798573365525
2.1,-61.925425902488435,14.990895487540385,269.3716740426079,276.8042342473105,0,8.110636540118279,186.27944015899064,11.032657081489347,18.979055801420262,0.01762106313250909,0.023432677723480545,0.03799144449374122,0.03565550597221706,0.08847513318244156,0.11712925419020657,0.2886460788459993,0.25872697242399784,2134854265078457.5,0.0,-3986514377389.1875,0.802987272382796,-0.19699323716564143,0.39461287486263,0.40085631327807353,0.08847513318244156,0.11712925419020657,0.2886460788459993
2.3,-61.92365662868285,14.993238030950812,269.37344801765045,276.80569165723017,0,8.149689527246881,186.87299398884537,11.032656637995586,18.979114933921682,0.008846369027928359,0.01171271705213252,0.008869875212838009,0.02930283494418408,-0.04387347052290371,-0.058599803356740206,-0.14560784640451624,0.2277795138229516,2134854265078457.5,0.0,-3986514377389.1875,0.8623202342136024,-0.11965052696973143,0.2403125184131966,0.42934538375947484,-0.04387347052290371,-0.058599803356740206,-0.14560784640451624
2.4,-61.92188003640327,14.995579788341923,269.3772704770579,276.80914090777645,0,8.169177957624848,187.16931929764107,11.032655682380735,18.979242349235264,0.017765922795760485,0.023417573911110857,0.038224594074449635,0.032651664662624244,0.08919553767832118,0.11704856858978327,0.293547188616116,0.23751399216668156,2134854265078457.5,0.0,-3986514377389.1875,0.8034970852260959,-0.19649759959227328,0.3957209021506463,0.39898132160380795,0.08919553767832118,0.11704856858978327,0.293547188616116
2.61,-61.92009631482743,14.997920718073436,269.37884927492956,276.8104051335288,0,8.209882119087215,187.79054958741378,11.032655287681267,18.97929497583099,0.008493912265907155,0.011147284435777819,0.007518085103204917,0.02875959417318367,-0.044152431094539674,-0.05842994988253829,-0.14622147129164154,0.19634381414924562,2134854265078457.5,0.0,-3986514377389.1875,0.8691043054076012,-0.10815934170333277,0.21839434413956468,0.43042208769081813,-0.044152431094539674,-0.05842994988253829,-0.14622147129164154
2.7,-61.91830544329163,15.00026077852332,269.37967286571427,276.8109328144965,0,8.227259602034804,188.0563308041621,11.03265508178357,18.97932242885714,0.019898572620036182,0.02600067166537271,0.009151008718946358,0.032508593343626935,0.12671844837921098,0.16503763588438713,0.018143595730460396,0.19439833994909397,1.747443577212276,0.0,0.08444020471628164,0.8882797546308776,-0.060161793465321675,0.12180088858181615,0.4387529825090922,0.12671844837921098,0.16503763588438713,0.018143595730460396
2.9,-61.91650741128979,15.002599898088931,269.38455660423193,276.81541003089603,0,8.26575001625199,188.64590342175129,11.032653860848942,18.979485220141065,0.008990160009183524,0.01169559782805864,0.024418692588312783,0.026563805213193892,-0.05454206305426336,-0.07152536918657046,0.07633841934683222,0.14547969630906726,8.708956267201113,0.0,-0.0854277004758984,0.7812881210111006,-0.21714675652189577,0.4408024573619654,0.38487576136023033,-0.05454206305426336,-0.07152536918657046,0.07633841934683222
3.0,-61.91470235847267,15.00493804518816,269.3865960456952,276.81711772028257,0,8.28490637377963,188.94011988577776,11.032653350988577,18.979553201523174,0.01805052817125839,0.02338147099228747,0.020394414632960416,0.03451064911556281,0.09060368162074857,0.11685873164228819,-0.04024277955352363,0.19695571254994576,27.21129402452008,0.0,-0.08491533581209865,0.8568649596460859,-0.13121728515631925,0.2670698008587529,0.420996658509522,0.09060368162074857,0.11685873164228819,-0.04024277955352363
3.21,-61.912890264646954,15.007275168260557,269.38911404573116,276.8192895288225,0,8.324922417642766,189.55666554280648,11.032652721488567,18.979637134857704,0.008629018217679427,0.011129157487606754,0.011990476361591262,0.03305626430738442,-0.04486433311228078,-0.058344350022289125,-0.040018753673186455,0.1841483712151927,14.1470942706057,0.0,0.083836615571974,0.8427166579057774,-0.15198685391448147,0.3101635677684956,0.41294938183076707,-0.04486433311228078,-0.058344350022289125,-0.040018753673186455
3.3,-61.91107111977433,15.009611185768472,269.39315236040255,276.82293924785347,0,8.342017580393762,189.82033303863912,11.0326517119099,18.979771745346753,0.02021272080696693,0.025955750087942146,0.04487016301545238,0.037916868595559206,0.12870780654763914,0.16473991778150462,0.36532985170956855,0.21277238576596336,8445229497353.614,0.0,-1871536648657.8508,0.8014022817336469,-0.1984926265921202,0.40615339445233634,0.3916560738652097,0.12870780654763914,0.16473991778150462,0.36532985170956855
3.5,-61.90924507397071,15.011946056198202,269.39759994622955,276.82698569108453,0,8.379771614373198,190.40498125354344,11.032650600013442,18.97991999820765,0.009130229018090566,0.011674352148647305,0.02223792913497389,0.036250692224017514,-0.05541245894438178,-0.07140698969647415,-0.11316116940239235,0.20741222172282847,8445229497353.614,0.0,-1871536648657.8508,0.7925080156042268,-0.2067727762653287,0.42421104680861677,0.3862914080899504,-0.05541245894438178,-0.07140698969647415,-0.11316116940239235
3.6,-61.907412057505255,15.014279748061114,269.4019709602113,276.83095603862176,0,8.398568176152292,190.69661818922106,11.032649507259947,18.980065698673712,0.01833016465454305,0.023336918629119886,0.04371013981767642,0.043371409374834136,0.09199935636452478,0.1166256648047257,0.21472210682702514,0.24373692898989363,8445229497353.614,0.0,-1871536648657.8508,0.7947234208521354,-0.20467488341378037,0.4210262446267652,0.3863415299758989,0.09199935636452478,0.1166256648047257,0.21472210682702514
3.8,-61.905572230799514,15.016612199894785,269.4066148598472,276.83519040293055,0,8.435907087424438,191.2784529096354,11.032648346285038,18.98022049532824,0.009199133528703397,0.011662259168359073,0.023219498179400975,0.03786059885687705,-0.045655155629198335,-0.058373297303804146,-0.10245320819137738,0.18440776338555057,8445229497353.614,0.0,-1871536648657.8508,0.7892926778171633,-0.2094882472217103,0.4320591286166393,0.3826965539421769,-0.045655155629198335,-0.058373297303804146,-0.10245320819137738
3.9,-61.90372552442658,15.018943360264139,269.4111340031583,276.8393017949765,0,8.454488170277905,191.56862483514698,11.03264721649921,18.98037113343861,0.018467063729374882,0.023311603693532114,0.04519143311085823,0.042666744391934616,0.09267930200671477,0.1164934452517303,0.21971934931457235,0.20807037003193124,8445229497353.614,0.0,-1871536648657.8508,0.7924702108777936,-0.20656377716650892,0.4271614428995864,0.3832172654434476,0.09267930200671477,0.1164934452517303,0.21971934931457235
4.11,-61.901872089110086,15.021273177762575,269.4162250487086,276.84396821226557,0,8.493214749186563,192.17629692654444,11.032645943737823,18.980540834956955,0.00882588245948074,0.011094369040173913,0.024243074049189996,0.03938259892095962,-0.045910386999495824,-0.05817730787313418,-0.09975409076984854,0.17479046256840572,8445229497353.614,0.0,-1871536648657.8508,0.7812853370039505,-0.21616471277371743,0.44818816918577925,0.37682012172385265,-0.045910386999495824,-0.05817730787313418,-0.09975409076984854
4.2,-61.90001188572343,15.023601601013112,269.41968685562665,276.8470475585799,0,8.509717774675407,192.43600418538512,11.032645078286093,18.98065622852089,0.020668926518396833,0.025871369450413045,0.03846452131155179,0.04352028181577794,0.13158937843240123,0.16418889344710175,0.1580160806929091,0.18082896838134072,8445229497353.614,0.0,-1871536648657.8508,0.8191209125564924,-0.18071065011967105,0.37567144517637185,0.39402481752427865,0.13158937843240123,0.16418889344710175,0.1580160806929091
4.4,-61.898144945288806,15.02592859866951,269.4263298836264,276.853221242739,0,8.546142228968263,193.01151495687571,11.032643417529092,18.980877662787545,0.009334702173120482,0.011634988281992154,0.03321513999878786,0.039497143685927355,-0.0566711217263817,-0.07118190584210439,-0.026246906563819627,0.14439204515667542,8445229497353.614,0.0,-1871536648657.8508,0.7569404472799014,-0.23500347297943722,0.48983091480750796,0.3631531383013862,-0.0566711217263817,-0.07118190584210439,-0.026246906563819627
4.5,-61.896271348976285,15.028254049417404,269.4301199930287,276.8566170170722,0,8.564232268152749,193.2984092997603,11.032642470001742,18.981003999767623,0.018735963125209375,0.023254507478931513,0.03790109402302746,0.045070024076480544,0.09401260952088927,0.116195191969394,0.04685954024239612,0.16448137268414492,8445229497353.614,0.0,-1871536648657.8508,0.811569143870125,-0.18841609159022307,0.3937669795940669,0.38833293309883316,0.09401260952088927,0.116195191969394,0.04685954024239612
4.7,-61.89439112810298,15.030577971975447,269.43622404478214,276.86226314685837,0,8.600134811205958,193.87041214631236,11.032640943988804,18.981207468159404,0.009401104366517634,0.011619612790214607,0.030520258767126024,0.04233983414473471,-0.046674293793458665,-0.05817447344358448,-0.036904176279507137,0.13187877926603436,8445229497353.614,0.0,-1871536648657.8508,0.765740951386684,-0.22794563083309533,0.47763356596643625,0.36544187145933926,-0.046674293793458665,-0.05817447344358448,-0.036904176279507137
4.8,-61.89250430413204,15.03290030509643,269.4409515004844,276.8665680903102,0,8.61796786608781,194.1554952277253,11.032639762124878,18.981365050016148,0.01886823970941982,0.02322333120982742,0.04727455702266087,0.04625623333329718,0.09467135342902219,0.11603718419612853,0.16754298255534902,0.1530974616126232,8445229497353.614,0.0,-1871536648657.8508,0.7909865844982363,-0.20727321921990485,0.4354644874225653,0.37649530665312986,0.09467135342902219,0.11603718419612853,0.16754298255534902
5.0,-61.89061095867181,15.035220977568407,269.44774102240336,276.8728782975287,0,8.65332848743244,194.72376135582684,11.032638064744399,18.981591367413447,0.009466727301159486,0.011603362359888781,0.033947609594804334,0.04487656384432297,-0.04700756204130163,-0.05809984424969314,-0.06663473713928261,0.13911697329889655,8445229497353.614,0.0,-1871536648657.8508,0.7567865461328763,-0.2341895461931245,0.49330928882922637,0.3592705465257807,-0.04700756204130163,-0.05809984424969314,-0.06663473713928261
5.1,-61.88871108347489,15.037539958215842,269.45247017349755,276.8771818878695,0,8.67087919550079,195.00691914633666,11.032636882456625,18.981749005783254,0.018998751969192606,0.023189806474341962,0.04729151094181833,0.04930494655427671,0.09532024668033154,0.11586444114453222,0.1334390134701404,0.15738613790764386,8445229497353.614,0.0,-1871536648657.8508,0.7919043246376133,-0.20625400355014614,0.43561321191726426,0.37495060507073,0.09532024668033154,0.11586444114453222,0.1334390134701404
5.3,-61.8868047904372,15.039857165900722,269.4601775174376,276.88438233036794,0,8.70566845758407,195.57122125711322,11.03263495562064,18.982005917247918,0.009531465188423729,0.011586038424402634,0.03853671970034608,0.04692016109049695,-0.047336433903844344,-0.058018840249696585,-0.04377395620736121,0.12839383101931442,8445229497353.614,0.0,-1871536648657.8508,0.746422168255071,-0.24103101818744624,0.510401191155184,0.35248917582855016,-0.047336433903844344,-0.058018840249696585,-0.04377395620736121
5.4,-61.884892051597085,15.042172599523695,269.46491891862695,276.88869487318163,0,8.722921172492494,195.85234049737906,11.032633770270342,18.982163963954232,0.019127388401187672,0.023154336229733605,0.047414011893351676,0.05790687896800608,0.09595923212763892,0.11568297805330909,0.08877292193005552,0.21521807609446153,8445229497353.614,0.0,-1871536648657.8508,0.7925876331088185,-0.20543442350287508,0.4361702775809902,0.3733055456833239,0.09595923212763892,0.11568297805330909,0.08877292193005552
5.61,-61.882972959134335,15.044486148025184,269.4736617422226,276.89690008824743,0,8.758802992017447,196.44038273173368,11.032631584564443,18.98245539140742,0.009138535536902196,0.011016897626136585,0.04163249331256902,0.05417435384433596,-0.04756596602040704,-0.05779732668379534,-0.027531040860869802,0.22982647695938993,-79030482760.57152,0.0,914615744009.8754,0.7367418664588127,-0.2469834386529798,0.5257685625783209,0.34608961533432486,-0.04756596602040704,-0.05779732668379534,-0.027531040860869802
5.7,-61.88104751536933,15.04679782038653,269.4813794541554,276.90410621506044,0,8.774077892009492,196.69142112358423,11.03262965513646,18.982712648471846,0.021393819611148536,0.025685248459398756,0.08575235480887197,0.06529643576322583,0.13616982304718178,0.1629816759251355,0.4902206832922558,0.3323419569389191,-79030482760.57152,0.0,914615744009.8754,0.7476035497775007,-0.23940001924368057,0.5109676676958821,0.3502693331075905,0.13616982304718178,0.1629816759251355,0.4902206832922558
5.9,-61.87911580276206,15.049107525631102,269.48821142115156,276.9104488906493,0,8.807604160037084,197.24711973558604,11.032627947144713,18.982940380705053,0.009658563036367687,0.011548526222862055,0.034159834980869136,0.06736622201868081,-0.058676282873904195,-0.07068361118268345,-0.25796259914001396,0.3287125134285813,-79030482760.57152,0.0,914615744009.8754,0.7588765567577739,-0.23124158117281532,0.4948534919251822,0.3546177156736747,-0.058676282873904195,-0.07068361118268345,-0.25796259914001396
6.0,-61.877177813911175,15.051415212825429,269.4974277107527,276.91911053019726,0,8.824259223897597,197.52382540388928,11.032625643072311,18.983247590358424,0.019379888508837054,0.023076871943263993,0.09216289601113237,0.0697995369072819,0.09721325472469401,0.11528345720401979,0.5800306103026344,0.35875948812830843,-79030482760.57152,0.0,914615744009.8754,0.7337831889383986,-0.2479820539225624,0.5320833653275906,0.34198600103718774,0.09721325472469401,0.11528345720401979,0.5800306103026344
6.2,-61.87523361155307,15.053720851080323,269.5103759913361,276.9314027208505,0,8.85717408098797,198.07488797572614,11.032622406002165,18.983679199711204,0.009721011790517755,0.011528191274470235,0.06474140291714997,0.06620779898249018,-0.04829438359159645,-0.05774340334396874,-0.13710746546991187,0.281214120554794,-79030482760.57152,0.0,914615744009.8754,0.7102339341857248,-0.2620805512414148,0.5638164131334819,0.33014026666457785,-0.04829438359159645,-0.05774340334396874,-0.13710746546991187
6.3,-61.87328326856098,15.056024379551996,269.51511563213575,276.9357048246989,0,8.873440672205897,198.34922038768065,11.032621221091965,18.98383718773786,0.019503429920888563,0.023035284716730414,0.04739640799641637,0.06995337758260425,0.09782418130370842,0.1150709344226022,-0.17344994920733664,0.28542365161085465,-79030482760.57152,0.0,914615744009.8754,0.795363894926202,-0.20234166742146534,0.4364442292682869,0.368741859586532,0.09782418130370842,0.1150709344226022,-0.17344994920733664
6.5,-61.871326797943944,15.058325727443194,269.5296202032623,276.94950879242697,0,8.905669013504703,198.89542650167127,11.032617594949183,18.984320673442078,0.009782353085192588,0.011506739455988669,0.07252285563282605,0.0664742830128285,-0.04860538417847983,-0.057642726303708675,0.1256322381820483,0.1999621968791141,-79030482760.57152,0.0,914615744009.8754,0.7042090129212093,-0.26479494751454424,0.5726649094743771,0.32561972198871725,-0.04860538417847983,-0.057642726303708675,0.1256322381820483
6.6,-61.86936426284591,15.060624874004287,269.5343411757234,276.95378988003654,0,8.921577115704102,199.16727592796997,11.03261641470607,18.98447803919078,0.01962535098030578,0.02299146561092877,0.0472097246108662,0.06439240406731923,0.09842997895113227,0.1148472615494014,-0.25313131021959945,0.2375557402228176,-79030482760.57152,0.0,914615744009.8754,0.7966424423148981,-0.2010106863507562,0.4358641553220646,0.36739346915906845,0.09842997895113227,0.1148472615494014,-0.25313131021959945
6.8,-61.867395656544836,15.062921768534432,269.5499648214441,276.9686801657729,0,8.953085696251378,199.70840710895135,11.032612508794639,18.98499882738147,0.009843031505383229,0.011484472650726819,0.0781182286036141,0.07068483128362817,-0.04891159737461272,-0.0575349648010097,0.15454251996373938,0.2335229028930014,-79030482760.57152,0.0,914615744009.8754,0.7008132395696509,-0.2659190264516603,0.5781359725848951,0.32234557825136917,-0.04891159737461272,-0.0575349648010097,0.15454251996373938
6.9,-61.8654211024516,15.06521635038266,269.5546838132865,276.9729565093826,0,8.9686212025768,199.9776648134484,11.032611329046677,18.98515612710955,0.019745540932376467,0.02294581848227383,0.04718991842366879,0.08998570433539128,0.09902509426993185,0.11461345831546949,-0.30928310179945145,0.37008306300844235,-79030482760.57152,0.0,914615744009.8754,0.7975596043613358,-0.19998430404226405,0.43592835847112676,0.3658844379150192,0.09902509426993185,0.11461345831546949,-0.30928310179945145
7.1,-61.86344060410919,15.067508558948996,269.57195072507045,276.98944332821054,0,8.999387049293778,200.51350461616315,11.032607012318731,18.985731690835685,0.009902491712026097,0.011461042831681962,0.08633455891981642,0.08635687311551513,-0.04921524610175202,-0.05742387825295953,0.19572320248073885,0.44508588048497233,-79030482760.57152,0.0,914615744009.8754,0.6963398281954979,-0.2675773841568717,0.5848097324503637,0.31860753912574685,-0.04921524610175202,-0.05742387825295953,0.19572320248073885
7.2,-61.86145415519163,15.069798363685587,269.5887375315929,277.00546156492135,0,9.014656719258877,200.78006289936673,11.032602815617102,18.986291251053096,0.019864489175631554,0.022898047365913377,0.16786806522475128,0.10760882961896265,0.09961997463605403,0.11437004534231354,0.8153350630493442,0.7094025073083096,-79030482760.57152,0.0,914615744009.8754,0.6981143724966671,-0.266198359545933,0.5833398398028843,0.3185739907578525,0.09961997463605403,0.11437004534231354,0.8153350630493442
7.4,-61.85946191950308,15.072085704097807,269.5956872086481,277.01190472242405,0,9.04453269534277,201.31039699503822,11.032601078197837,18.98652290695494,0.009961178442736687,0.01143670206110058,0.034748385275804566,0.11709544329242245,-0.049516553664474286,-0.05730672652406394,-0.665598399744733,0.7189999615998026,-79030482760.57152,0.0,914615744009.8754,0.7615021433516465,-0.22689166410706577,0.49850599801941137,0.3465925971053704,-0.049516553664474286,-0.05730672652406394,-0.665598399744733
7.5,-61.85746381097688,15.07437051974537,269.6140205330471,277.0294254112498,0,9.05941772537714,201.57414923718915,11.032596494866738,18.987134017768238,0.019981085262017542,0.02284815647563229,0.18333324399009207,0.11206857350906034,0.10019906819280891,0.11411454414531749,1.4858485871428804,0.795861966350847,56847750748411.14,0.0,-349810448.62901837,0.6944708351360284,-0.26734308402625645,0.5889477398771289,0.31524354753494777,0.10019906819280891,0.11411454414531749,1.4858485871428804
7.71,-61.855459943674504,15.076652780243453,269.63554188263794,277.0500475189335,0,9.09006102104583,202.1248939586155,11.03259111452934,18.987851396087933,0.009542225249417483,0.010867907133727515,0.1024826170992453,0.10106774719498304,-0.049708857202857434,-0.057048806390022744,-0.3850029851945085,0.6946768634445973,3283886657164.1006,0.0,-895945500740.5388,0.6876995950455626,-0.27049552542420924,0.5974641939457548,0.3113486384302966,-0.049708857202857434,-0.057048806390022744,-0.3850029851945085
7.8,-61.85345038178466,15.078932425263792,269.6402773363248,277.0543316557742,0,9.10296161176407,202.35960620296817,11.03258993066592,18.98800924454416,0.02232846544269292,0.02532938911487849,0.052616152076249596,0.10366803143695291,0.14206933548083842,0.16068313312389998,-0.554071833588842,0.6932405586686696,-7.5172121026848275,0.0,-0.11846112975251515,0.7997675846251003,-0.19734709985383309,0.43704437818285113,0.3611345237733151,0.14206933548083842,0.16068313312389998,-0.554071833588842
8.0,-61.85143510962233,15.081209384535802,269.6631922740874,277.0763074841865,0,9.13134410453992,202.87829479190856,11.032584201931478,18.988773075802914,0.010076360811659404,0.011384796360047734,0.11457468881303602,0.09209172769909758,-0.06126052315516752,-0.06972296377415371,0.30979268368393187,0.4839884992997597,-7.5172121026848275,0.0,-0.11846112975251515,0.6858369434997981,-0.2705891350307788,0.6008414590728568,0.30886687746236297,-0.06126052315516752,-0.06972296377415371,0.30979268368393187
8.11,-61.84941424162767,15.083483647847686,269.667894577001,277.08055667365016,0,9.146631566859252,203.16184574156526,11.03258302635575,18.988929819233366,0.01837152722417437,0.02067512101712905,0.04274820830532526,0.08157822577787248,0.07541060375013643,0.08445749688255785,-0.6529680046155557,0.5600559329895519,-7.5172121026848275,0.0,-0.11846112975251515,0.8012922395832112,-0.1958133218695203,0.43594546993173744,0.35991587490431975,0.07541060375013643,0.08445749688255785,-0.6529680046155557
8.3,-61.84738773236523,15.085755145047534,269.6920132272551,277.1037014840902,0,9.172782874492476,203.64867307169013,11.032576996693185,18.989733774241838,0.01066583822338279,0.011955248420251877,0.12694026449516405,0.09593060239357129,-0.04055625789890277,-0.045894066299353234,0.4431160852096748,0.5373533290532262,-7.5172121026848275,0.0,-0.11846112975251515,0.684525638814546,-0.27037979182333904,0.603560326643254,0.3066502080243776,-0.04055625789890277,-0.045894066299353234,0.4431160852096748
8.41,-61.84535572652277,15.088023826044436,269.69671540817285,277.1079479009442,0,9.187587574809584,203.92879124602558,11.032575821147956,18.98989051360576,0.01847278038598894,0.02062437269911248,0.04274709925249993,0.11997780486371327,0.07097220147823809,0.078810220716915,-0.7653924112969506,0.6757733558352234,-7.5172121026848275,0.0,-0.11846112975251515,0.8021104990986969,-0.19486233414407453,0.4361314544429535,0.35838076456896567,0.07097220147823809,0.078810220716915,-0.7653924112969506
8.6,-61.843318138910384,15.090289630809586,269.72204610423046,277.13226985362934,0,9.212905586832859,204.40959219755445,11.032569488473943,18.990734870141015,0.010724145328342339,0.011925288237631804,0.13331945293478084,0.11741815617932079,-0.040782289777087484,-0.04578465506042474,0.47669659832779554,0.7427162614914194,-7.5172121026848275,0.0,-0.11846112975251515,0.6833682300163401,-0.2700734951362169,0.6060873126603521,0.30450999796623257,-0.040782289777087484,-0.04578465506042474,0.47669659832779554
8.7,-61.84127511445953,15.092552519377382,269.74542970107586,277.1546956014826,0,9.226112171061768,204.6610771556343,11.03256364257473,18.991514323369195,0.02043024450856031,0.022628885677953372,0.23383596845406002,0.13282680131675484,0.09706099180218004,0.10703597440321606,1.0051651551927954,0.9345521321699725,655973194760.5619,0.0,-445458509347.60175,0.6866674548315385,-0.26796674639344426,0.602952657450141,0.3051716274103829,0.09706099180218004,0.10703597440321606,1.0051651551927954
8.9,-61.839226738221925,15.09481244184654,269.7524163855476,277.1611615505996,0,9.251667658909124,205.16074781199663,11.032561895903612,18.991747212851585,0.010241881188015558,0.0112996123457964,0.034933422358562706,0.15338850143865032,-0.05094181660272348,-0.056646366660784556,-0.9945127304774813,0.8370224498059281,13.006508017763986,0.0,-0.04267376662276732,0.7649127923469659,-0.22193611597425533,0.5006965835389464,0.3390511934246159,-0.05094181660272348,-0.056646366660784556,-0.9945127304774813
9.02,-61.83717293536872,15.097069358381162,269.77682524569383,277.1845827233111,0,9.266905376620768,205.45840883930293,11.032555793688577,18.992560841523126,0.01711502377670382,0.01880763778851318,0.2034071678854364,0.13763546912192814,0.05727618823906922,0.06256687868930691,1.4039478793906233,0.9555052387442352,5.039568127557443,0.0,0.07727583691274091,0.6856721991140612,-0.26758086509302975,0.6052890588403665,0.30311593697180655,0.05727618823906922,0.06256687868930691,1.4039478793906233
9.2,-61.83511380118933,15.099323199211874,269.8043293707909,277.2110153062149,0,9.289246533780641,205.90183946278617,11.032548917657302,18.99347764569303,0.01143963432994612,0.012521337948396353,0.15280069498386561,0.11909831185375483,-0.03152994137087616,-0.03492388800064909,-0.28114707167539366,0.849564190117609,289977266436.906,0.0,-441324342151.51404,0.6817671065701062,-0.2690693594893804,0.610280725744985,0.3005873050665553,-0.03152994137087616,-0.03492388800064909,-0.28114707167539366
9.3,-61.833049441090544,15.101573934636905,269.8089653513622,277.2151895594111,0,9.301329535281177,206.14658222417873,11.03254775866216,18.99363217837874,0.02064360098785271,0.022507354250311487,0.046359805712653974,0.12263018213880812,0.09203966657906461,0.09986016301914992,-1.0644088927121014,0.8438167543635944,360566787599.7158,0.0,-356691571.2168945,0.8059030973323895,-0.19091007434438023,0.43415205159235565,0.3543804979425826,0.09203966657906461,0.09986016301914992,-1.0644088927121014
9.5,-61.83097981059551,15.103821505023182,269.83742767919597,277.2425524065871,0,9.325205286370707,206.63257072314389,11.0325406430802,18.994580922639866,0.01034815247518143,0.011237851931387195,0.1423116391688955,0.11011247278172002,-0.05147724256335659,-0.05634751159462166,0.4797591672812094,0.658658926940935,360566787599.4184,0.0,-356691571.097161,0.6812523867802456,-0.2684117515186505,0.6120365839903787,0.29876669327469707,-0.05147724256335659,-0.05634751159462166,0.4797591672812094
9.6,-61.828905045342694,15.10606586080743,269.84209334736454,277.24675303235716,0,9.336804070075642,206.87379486130766,11.032539476663159,18.99473644491215,0.020747652528143663,0.022443557842475394,0.04665668168570408,0.08948041683005746,0.1039950005296227,0.11205705911088239,-0.9565495748319176,0.7836735951375488,240342483795.14883,0.0,-440748488519.9313,0.8060358580913263,-0.19051298868284455,0.4355637169801585,0.35255530780933936,0.1039950005296227,0.11205705911088239,-0.9565495748319176
9.8,-61.82682511108492,15.108306942497258,269.87040915024176,277.27397096897556,0,9.359698832486359,207.35264931030852,11.032532397712439,18.995680305008058,0.010399671288858714,0.011205408449139694,0.14157901438608103,0.106597623788554,-0.05173990619642447,-0.0561907469666782,0.4746116635018822,0.6678803268180903,240342483803.34155,0.0,-440748488520.0505,0.6820281442970918,-0.26711944039256813,0.6123472656925993,0.2975157830264199,-0.05173990619642447,-0.0561907469666782,0.4746116635018822
9.91,-61.82474012368832,15.110544720672257,269.87505668352196,277.2781514527447,0,9.371899067548618,207.61395197282562,11.032531235829119,18.995835222784066,0.018954430878182035,0.02034343795453783,0.042250302547328054,0.12845104680600616,0.07777054172112151,0.08307299550361984,-0.9029882894432135,0.7933650439743073,-49634782640.62726,0.0,575853631.383594,0.8071830221123901,-0.18929040983739562,0.43508568809209924,0.35117681241010795,0.07777054172112151,0.08307299550361984,-0.9029882894432135
10.11,-61.82265004913133,15.112779135985088,269.90311064423724,277.30511226399307,0,9.393757670112091,208.08523338561238,11.03252422233894,18.996770354807907,0.010450372784944798,0.01117207656415435,0.14026980357641655,0.1252454351081688,-0.04252029046618634,-0.045856806951917566,0.4900975051454442,0.8256137720147031,-273828143163.90225,0.0,-879156155975.9539,0.6829358159857092,-0.2657631728336349,0.6125039741620449,0.29632328434504457,-0.04252029046618634,-0.045856806951917566,0.4900975051454442
10.21,-61.82055491350372,15.11501013916257,269.92816403077563,277.3291515119639,0,9.404543563826579,208.31900697273568,11.032517958992306,18.997605467692523,0.020951356276128465,0.022310031774814516,0.25053386538388267,0.14671400325515532,0.10500983491183517,0.11137955210660008,1.1026406180746455,1.153512164046608,-273828143172.57675,0.0,-879156155975.9539,0.6871737705683945,-0.26324338881651127,0.6083363141113483,0.29735846418192563,0.10500983491183517,0.11137955210660008,1.1026406180746455
10.4,-61.81845491300549,15.117237681006761,269.93506794289914,277.335524497445,0,9.42415913391567,208.75970075385504,11.032516233014276,18.997835598096636,0.011052634201217002,0.011723904443116663,0.0363363795973951,0.1626314314657533,-0.05209853723637626,-0.05571645964051516,-1.1273551883499375,1.0910684100374601,52575299468617.17,0.0,-710962088.3914063,0.7696416263875754,-0.21606448954911472,0.5006359004672708,0.3321620063322913,-0.05209853723637626,-0.05571645964051516,-1.1273551883499375
10.5,-61.81634995394598,15.119461712396058,269.959853981761,277.35930127896387,0,9.434444991005645,208.9897959256961,11.03251003650456,18.998661799392032,0.021049590595083677,0.02224031389296507,0.24786038861862014,0.14540379115391971,0.0999695639386671,0.10516409449848445,2.1152400902122577,1.162295738283762,52575299468617.17,0.0,-710962088.3914063,0.6881670286447659,-0.2618555566427892,0.6083788067119574,0.29619762943896727,0.0999695639386671,0.10516409449848445,2.1152400902122577
10.7,-61.81424014274266,15.12168219428626,269.9857063499236,277.3841148841743,0,9.4542580720486,209.4461108084199,11.03250357341252,18.999523544997455,0.010549056016593322,0.011102409451009305,0.1292618408129447,0.1206811964796775,-0.05250267289245196,-0.055689522209779026,-0.5929927390283793,1.02330223624843,52575299468617.17,0.0,-710962088.3914063,0.6869333981909802,-0.26200014776501745,0.6103503580337034,0.294874328263807,-0.05250267289245196,-0.055689522209779026,-0.5929927390283793
10.8,-61.81212555592036,15.123899057711665,269.99026965137546,277.3882061207202,0,9.46381831028365,209.6723102387163,11.032502432587156,18.99967565504585,0.021145868223015594,0.022168634254046932,0.045633014518670544,0.12357178210771087,0.10596812206422121,0.1106622480303747,-0.8362882629427296,0.9664466263214498,52575299468617.17,0.0,-710962088.3914063,0.8112249613867504,-0.18514174860367777,0.43246151190193693,0.3472947389041889,0.10596812206422121,0.1106622480303747,-0.8362882629427296
11.0,-61.81000617011,15.126112263786144,270.0158433915489,277.41274631389086,0,9.48257315403836,210.120742811271,11.032496039152113,19.00052811305163,0.010596929051800468,0.011066030372397546,0.1278687008672823,0.09674353447124535,-0.052744695856075816,-0.05551301940824713,0.41117843174306024,0.610777672329468,52575299468617.17,0.0,-710962088.3914063,0.6879116040047532,-0.2606148189656743,0.610404710729852,0.29370670800971194,-0.052744695856075816,-0.05551301940824713,0.41117843174306024
11.1,-61.80788209204769,15.12832176370422,270.02031377733726,277.4167447370514,0,9.491600509133468,210.34295602326654,11.032494921555665,19.000677125911242,0.021240780623088616,0.02209499918075516,0.04470385788351921,0.08084374614383391,0.10643851571288186,0.11028968808357655,-0.8316484298376339,0.6433065550214112,52575299468617.17,0.0,-710962088.3914063,0.814000049477394,-0.1826113968938757,0.42885998432319183,0.3466065651737991,0.10643851571288186,0.11028968808357655,-0.8316484298376339
11.31,-61.80575331857371,15.130527528742139,270.0443962171112,277.4398311973942,0,9.51012075599029,210.80520245661052,11.032488900945722,19.00147987390371,0.010137016542782457,0.01050364303771067,0.11467828463791839,0.09762922663787232,-0.052875067049076734,-0.05519693401449736,0.33321155597332813,0.5771449126846558,52575299468617.17,0.0,-710962088.3914063,0.6907236572573375,-0.25834993223500335,0.6083744844999205,0.2933200102766147,-0.052875067049076734,-0.05519693401449736,0.33321155597332813
11.41,-61.80361994663139,15.132729480258963,270.0484300207368,277.4434023304485,0,9.518585572674432,211.0232032194721,11.032487892494816,19.00161433402456,0.021333719423140073,0.022019515168239048,0.04033803625588931,0.11840806371398771,0.11196702880357656,0.11515872130528419,-0.7434024838202934,0.6811541589534589,52575299468617.17,0.0,-710962088.3914063,0.824924797709386,-0.1732854971976524,0.4091651915553036,0.34936379406658963,0.11196702880357656,0.11515872130528419,-0.7434024838202934
11.6,-61.80148191326616,15.134927569697615,270.0746404995911,277.46855793080255,0,9.534352622539444,211.43359810560466,11.032481339875101,19.00248801665304,0.01125280718544502,0.01156889178237878,0.1379498887068194,0.11432339679531352,-0.0530574328299741,-0.05500328097821208,0.5137465918470019,0.7032932674244633,52575299468617.17,0.0,-710962088.3914063,0.6881976837917527,-0.25863780652390805,0.6123782532240091,0.2906601246103076,-0.0530574328299741,-0.05500328097821208,0.5137465918470019
11.7,-61.79933936562447,15.13712175858597,270.0977052665796,277.49065063788004,0,9.542478248138067,211.64757386401845,11.032475573683355,19.003256842219322,0.02142547641689426,0.02194188888354994,0.23064766988511648,0.14038660035792136,0.10172669231449277,0.10372997101171198,0.9269778117829741,1.1104251864697976,52575299468617.17,0.0,-710962088.3914063,0.6932752152909134,-0.255754977323227,0.6071968686244019,0.29201169526314197,0.10172669231449277,0.10372997101171198,0.9269778117829741
11.91,-61.79719240095276,15.139311998537915,270.10410133615255,277.4965176629069,0,9.558521339111604,212.09233335092716,11.032473974665962,19.003470044538417,0.010223641293854167,0.010429714056881464,0.030457474156805893,0.15595483908095348,-0.053342072014476424,-0.05481988012699252,-0.9532866463252847,1.0757760778406003,52575299468617.17,0.0,-710962088.3914063,0.7802345733796663,-0.20632352635162082,0.49116426297918436,0.3277533825134334,-0.053342072014476424,-0.05481988012699252,-0.9532866463252847
12.0,-61.79504091659642,15.14149824125442,270.12602052432106,277.5174931696733,0,9.565338377177664,212.28102409047852,11.032468494868919,19.004200684144035,0.023905381737105536,0.02429158573894108,0.2435465352056734,0.13322818719094182,0.1520193382583488,0.1540207964673293,2.3676562338763096,1.0794188719734885,-120018054587795.5,0.0,-435972754858.292,0.695919220852651,-0.25357541696774333,0.6053144089877784,0.29153115138737923,0.1520193382583488,0.1540207964673293,2.3676562338763096
12.2,-61.79288506999874,15.143680438524603,270.1515384486735,277.5419705714495,0,9.57971409712487,212.696166348446,11.032462115387832,19.00505128162245,0.010779232988404924,0.010910986350918288,0.12758962176207023,0.13930834947488846,-0.06563074374350329,-0.06690299694011419,-0.579784567218018,1.3751678587781155,-120018054587795.5,0.0,-435972754858.292,0.6902951167830349,-0.2557978143454574,0.6122842171992087,0.2883889167258953,-0.06563074374350329,-0.06690299694011419,-0.579784567218018
12.4,-61.79072491869987,15.145858542226788,270.1555518283917,277.54551500729104,0,9.593123517182995,213.10549604073105,11.032461112042903,19.00518506094639,0.010800756494333484,0.010890518510926426,0.020066898591153296,0.14283438563758313,0.00010761752964280036,-0.00010233919995931062,-0.5376136158545818,1.6239618296733034,-120018054587795.5,0.0,-435972754858.292,0.8275073314108219,-0.17042496037595492,0.4090463679262918,0.3447724151211974,0.00010761752964280036,-0.00010233919995931062,-0.5376136158545818
12.5,-61.78856039033578,15.148032504329578,270.18168018426684,277.5705845205069,0,9.599786040553841,213.30795839382168,11.032454579953933,19.00605600614223,0.02164528364090764,0.02173962102789425,0.26128355875130277,0.11932835175098415,0.10844527146574195,0.10849102516967862,2.4121666016015033,1.2360288546907563,-120018054587795.5,0.0,-435972754858.292,0.6900100555264378,-0.2549992046343414,0.6137343913939587,0.28669081905171423,0.10844527146574195,0.10849102516967862,2.4121666016015033
12.6,-61.78639168263716,15.150202276892895,270.1858053387151,277.5742355347864,0,9.606038736568184,213.50894039868865,11.032453548665321,19.006193511290505,0.021687076986225483,0.021697725633167485,0.04125154448274785,0.10392956315449083,0.00041793345317842214,-0.00041895394726765436,-2.200320142685557,1.2934494315365028,-120018054587795.5,0.0,-435972754858.292,0.8254603296555345,-0.17188681861526783,0.4148274890567333,0.34203555381595085,0.00041793345317842214,-0.00041895394726765436,-2.200320142685557
12.8,-61.78421871342845,15.152367792069064,270.2112993157935,277.59868553302664,0,9.618144713736385,213.90642769994,11.03244717517105,19.00704331052645,0.010864846043538932,0.010827575880849536,0.12746988539191695,0.12492860989388169,-0.05411115471343247,-0.054350748761589456,0.4310917045458432,1.2752163428820333,-120018054587795.5,0.0,-435972754858.292,0.6914506958565163,-0.25339297465711363,0.6132342536659755,0.28571259287034023,-0.05411115471343247,-0.054350748761589456,0.4310917045458432
12.9,-61.78204165062672,15.154529042103832,270.2154377412153,277.6023472787727,0,9.623824505824299,214.10291533028746,11.032446140564696,19.00718125804051,0.021770628017350267,0.021612500347672002,0.04138425421786011,0.12050164531099772,0.10905781973811374,0.10784924466822504,-0.8608563117405715,1.0132164569830706,-120018054587795.5,0.0,-435972754858.292,0.8258015457885445,-0.17134380802612548,0.41580225029905854,0.34029633420093686,0.10905781973811374,0.10784924466822504,-0.8608563117405715
13.1,-61.77986043224064,15.156685959337455,270.2413070423655,277.6271606242141,0,9.634782973649124,214.491334887058,11.032439673239407,19.00804356807885,0.010906091930387201,0.010784586168117765,0.12934650575118714,0.11723450923172718,-0.05432268043481552,-0.054139570897771376,0.43981125766663676,0.7811595695817334,-120018054587795.5,0.0,-435972754858.292,0.6914733525427048,-0.2524474743083573,0.6143231503029938,0.2841512668289354,-0.05432268043481552,-0.054139570897771376,0.43981125766663676
13.2,-61.77767513636941,15.158838486205738,270.265205348316,277.65005447770596,0,9.64008225371969,214.6832495504536,11.03243369866292,19.0088401782772,0.021852958712287394,0.02152526868282941,0.23898305950467688,0.13615821096886274,0.10946866781900233,0.10740682514711684,1.0963655375349013,1.0392790425274736,-120018054587795.5,0.0,-435972754858.292,0.6947001174697548,-0.2504804554009653,0.6112330199634722,0.28468488466367076,0.10946866781900233,0.10740682514711684,1.0963655375349013
13.4,-61.77548592120171,15.160986595241075,270.2715137898406,277.65582533343985,0,9.649684221289045,215.06244600009956,11.032432121552539,19.009050459661353,0.010946075838518195,0.010740545176686154,0.03154220762297638,0.15370809990921502,-0.05453441436884571,-0.053923617530716,-1.037204259408497,0.9525647746883671,-120018054587795.5,0.0,-435972754858.292,0.7847169234858468,-0.20066939289888203,0.4910269295825472,0.3206925305853537,-0.05453441436884571,-0.053923617530716,-1.037204259408497
13.51,-61.77329263501465,15.163130239073505,270.2958521994301,277.6791456300498,0,9.654842275225526,215.26835139763472,11.032426036950142,19.009861739981005,0.019938965336892496,0.01948767120390352,0.2212582689956198,0.13788359701134828,0.08175354089431225,0.07951932752015829,1.7246914670240399,1.060243611087537,37662322528867.12,0.0,436323009222.2,0.694547323396689,-0.24961694407187152,0.6125201263264651,0.28304503464948194,0.08175354089431225,0.07951932752015829,1.7246914670240399
13.7,-61.77109548617264,15.165269350431752,270.32213401130696,277.7043567689567,0,9.663037462910298,215.61953260223407,11.032419466497172,19.010737800376898,0.011563941273725474,0.011258480832877593,0.13832532566766567,0.11639449368002389,-0.044079074016668655,-0.04331152826855763,-0.436489175410286,0.9318062690807766,-354034444189.01697,0.0,-438892901348.25,0.6919959288430453,-0.2503193662310391,0.6159504659070343,0.28122388394880204,-0.044079074016668655,-0.04331152826855763,-0.436489175410286
13.8,-61.76889451312645,15.16740389214427,270.32622576143996,277.7079667647765,0,9.666969318359119,215.80207290163648,11.03241844355964,19.010874192047996,0.02200973046193124,0.021345417125182262,0.04091750132999947,0.11956005261987153,0.10445789188205619,0.10086936292304526,-0.9740782433766482,0.9102896054851936,-515930551835.49396,0.0,937880991.2466309,0.8288506365906945,-0.16804414152554265,0.41465073915549866,0.3359055719096401,0.10445789188205619,0.10086936292304526,-0.9740782433766482
14.0,-61.76668965441196,15.169533827140278,270.35274878755854,277.7334108176147,0,9.674426947852506,216.16237186624852,11.03241181280311,19.011758292918618,0.011024293572425887,0.01064967498003892,0.13261513059291066,0.10198456216189815,-0.054927184447526964,-0.0534787107257169,0.4584881463145576,0.6594660243490089,-515930551839.1583,0.0,937880991.4036051,0.6922102812508094,-0.24926898217508278,0.6168107612315002,0.2797398539448588,-0.054927184447526964,-0.0534787107257169,0.4584881463145576
14.1,-61.76448108864928,15.17165908845082,270.35681252916726,277.73699149479097,0,9.677768327319374,216.34011451823014,11.032410796867708,19.01189375097224,0.022085657626789237,0.021252613105424777,0.040637416087179336,0.08332215225331,0.11061364054363389,0.10602938125385895,-0.9197771450573166,0.7504085460250481,-515930551827.42804,0.0,937880991.4030727,0.8301551813513088,-0.166709851079322,0.41367280010773794,0.3345519614046664,0.11061364054363389,0.10602938125385895,-0.9197771450573166
14.3,-61.76226873454157,15.17377961920977,270.38366432756,277.7627537348532,0,9.684045763949957,216.69074666367496,11.03240408391811,19.012788810918664,0.011061770538560663,0.010602653794746729,0.13425899196363317,0.1018833091414677,-0.055119435441142575,-0.053249796553389954,0.4681078793822667,0.666204594959559,-515930551817.7108,0.0,937880991.2457311,0.6923113674090766,-0.24826381340075745,0.6177943727035278,0.2782088470335605,-0.055119435441142575,-0.053249796553389954,0.4681078793822667
14.41,-61.760052780873956,15.175895402654868,270.3876846258338,277.76629010390735,0,9.687053398557447,216.88081797993723,11.032403078843542,19.012922820861128,0.020145033341960307,0.019234394955444503,0.03654816612559214,0.12482308783235525,0.08257511639454264,0.078470374188162,-0.8882802348912866,0.7818008694152502,-161896107624.7708,0.0,439830782339.5739,0.8318348314213795,-0.165072815837839,0.41192638796182135,0.3333443108952949,0.08257511639454264,0.078470374188162,-0.8882802348912866
14.6,-61.757833126512516,15.178006392128779,270.4148603689029,277.7923658757651,0,9.691885330512319,217.20444565163936,11.032396284907774,19.01382867896343,0.01168239137599947,0.011110470915320358,0.14303022667951718,0.12156299255146523,-0.044540220873478205,-0.042757494948021925,0.5604318976522384,0.8111255450744499,-161896107624.7708,0.0,439830782339.5739,0.6924221683124313,-0.24725177770443407,0.6187586635463977,0.2766872160721994,-0.044540220873478205,-0.042757494948021925,0.5604318976522384
14.7,-61.75560990040314,15.180112521080101,270.4394904035122,277.81596271639035,0,9.694243603590284,217.37238167213866,11.032390127399122,19.014649680117074,0.02223226109379092,0.021061289513220137,0.2463003460928812,0.14234911726292765,0.10549869717791487,0.09950818597899813,1.032701194133644,1.1295204656402882,-161896107624.7708,0.0,439830782339.5739,0.6962271566580415,-0.24506180924992063,0.6150211687389013,0.2774192098288268,0.10549869717791487,0.09950818597899813,1.032701194133644
14.9,-61.753383231570524,15.182213763064393,270.44569627825086,277.8216236917503,0,9.697932466868796,217.70326335739577,11.032388575930437,19.014856542608364,0.011133344163063382,0.010506209921459175,0.031029373693342965,0.1590874787933724,-0.05549458465363739,-0.052775397958804524,-1.0763548619976855,1.0598416944466436,-161896107624.7708,0.0,439830782339.5739,0.7892233209582872,-0.19497035808165802,0.49068682812198666,0.3135913675990883,-0.05549458465363739,-0.052775397958804524,-1.0763548619976855
15.0,-61.75115301911703,15.184310051745202,270.46940564356566,277.8443225263414,0,9.699684029643766,217.86619431635535,11.032382648589108,19.015646854785523,0.022302124534974235,0.020962886808089182,0.23709365314800918,0.13907453504691844,0.11168780371910893,0.10456676886630044,2.0606427945466694,1.1440422058616295,-161896107624.7708,0.0,439830782339.5739,0.6982064354293913,-0.24321390915147517,0.613865342695689,0.2766299133451501,0.11168780371910893,0.10456676886630044,2.0606427945466694
15.2,-61.748919372221586,15.186401350895085,270.49515315177433,277.8690045835077,0,9.70237181946891,218.1870002605127,11.032376211712055,19.016505105059146,0.011168234477203538,0.010456495749418019,0.128737541043336,0.11591644785977295,-0.05566945028885368,-0.052531955293356004,-0.5417805605233678,1.036709797329927,-161896107624.7708,0.0,439830782339.5739,0.6953669532724609,-0.24400345565873524,0.617622148427643,0.2747180294316219,-0.05566945028885368,-0.052531955293356004,-0.5417805605233678
15.3,-61.74668243013869,15.188487624396629,270.49829805707833,277.87168297475154,0,9.703318871113735,218.34486098772135,11.03237542548573,19.016609935235945,0.022369420828951228,0.020862735015434158,0.03144905303997758,0.11755892179999998,0.11201186351747532,0.10406239266015992,-0.9728848800335704,1.026270616743759,-161896107624.7708,0.0,439830782339.5739,0.8570914260485523,-0.14261199770385047,0.36200468265012237,0.33765176623906507,0.11201186351747532,0.10406239266015992,-0.9728848800335704
15.5,-61.74444211219725,15.190568806243464,270.5246022155759,277.8969051938133,0,9.704813550534473,218.65546287267864,11.032368849446106,19.017486740519196,0.011201589707212673,0.010405909234174652,0.13152079248783413,0.09592001277858721,-0.05583915560869297,-0.05228412890629772,0.5003586972392845,0.7141657217620938,-161896107624.7708,0.0,439830782339.5739,0.695111560194043,-0.24314588783913724,0.6189865651058829,0.27304876547961465,-0.05583915560869297,-0.05228412890629772,0.5003586972392845
15.6,-61.74219857779949,15.192644870541283,270.5275997852747,277.89943826673084,0,9.705159438312679,218.80819022595023,11.03236810005368,19.017586659509156,0.022435343977562718,0.02076064297819265,0.029975696987776353,0.07764684930330372,0.11233754270350085,0.10354733744018037,-1.0154509550005812,0.7945054898565959,-161896107624.7708,0.0,439830782339.5739,0.8619730180024721,-0.1379219891277425,0.3521184562564382,0.337627951915033,0.11233754270350085,0.10354733744018037,-1.0154509550005812
15.8,-61.73995171641992,15.194715731508854,270.55359412610414,277.92435718853415,0,9.705451234258522,219.1084638150948,11.032361601468473,19.018453137536806,0.011234306897875907,0.01035430483785399,0.12997170414735068,0.09700966363959669,-0.05600518539843376,-0.052031690701693036,0.499980035797869,0.7175606655342237,-161896107624.7708,0.0,439830782339.5739,0.6960443225286226,-0.24175410327911998,0.6190169883047185,0.27183675765711945,-0.05600518539843376,-0.052031690701693036,0.499980035797869
15.91,-61.73770177760417,15.196781403479015,270.5564922999282,277.9267916402566,0,9.70515674847293,219.2706541433393,11.032360876925017,19.01854974333094,0.020453989234038298,0.018778836092375333,0.026347034764223252,0.11711714598916492,0.08381529396511309,0.07658664776837625,-0.9420424489375269,0.7840768533957586,-161896107624.7708,0.0,439830782339.5739,0.8655054892109318,-0.1344607420364345,0.345273786961653,0.3370557357973839,0.08381529396511309,0.07658664776837625,-0.9420424489375269
16.1,-61.735448620968015,15.198841790899703,270.5830475705572,277.9522549661855,0,9.704293744548353,219.54582189342418,11.032354238107361,19.019434919018572,0.011858719137672986,0.010844144319408893,0.13976458225783878,0.11385940407321413,-0.04523826366508028,-0.041761535647191504,0.5969344604927093,0.8002778578242818,-161896107624.7708,0.0,439830782339.5739,0.695788207208564,-0.24088383712014028,0.6203740311057448,0.2701662622411954,-0.04523826366508028,-0.041761535647191504,0.5969344604927093
16.21,-61.73319235619611,15.200896868334947,270.60848900375976,277.9766332355776,0,9.703565010561551,219.70223234012272,11.032347877749059,19.02028296679199,0.02051149792637582,0.018682522138585157,0.23128575638690105,0.13924988409048294,0.07866162535184434,0.07125798017433004,0.8320106739005704,1.169800524192345,-161896107624.7708,0.0,439830782339.5739,0.6975773095059039,-0.23960924056010588,0.6188986057587836,0.27007003700993454,0.07866162535184434,0.07125798017433004,0.8320106739005704
16.4,-61.730933183041046,15.202946610465876,270.6125003672751,277.98014866590427,0,9.701337766311099,219.96736217026677,11.03234687490818,19.02041667890917,0.011890385026671871,0.010788116478572118,0.021112439554527854,0.15735244793009331,-0.04537427841949501,-0.04154950347375334,-1.1061753517493458,1.1029168165249703,-161896107624.7708,0.0,439830782339.5739,0.8357943044346073,-0.15998560974294201,0.4144252505407035,0.32265182017792055,-0.04537427841949501,-0.04154950347375334,-1.1061753517493458
16.5,-61.728670921322205,15.204990912091708,270.63810133082444,278.00468063380384,0,9.700111070216082,220.1043312027646,11.032340474667294,19.021270044360815,0.022622617188403315,0.020443016258315502,0.25600963549322475,0.13815134261112128,0.10732232161731291,0.09654899779743246,2.348971959386936,1.2066190274950261,-161896107624.7708,0.0,439830782339.5739,0.6978459374955039,-0.23850389773716274,0.6196639110347892,0.2685955614790965,0.10732232161731291,0.09654899779743246,2.348971959386936
16.71,-61.72640572092461,15.207029778130746,270.6649750661221,278.0304509319827,0,9.69661737315813,220.3861572640814,11.032333756233468,19.022165835537404,0.010786668559975785,0.009708885900183139,0.12797016808414238,0.11710680605685479,-0.05636166013536896,-0.051114906467296765,-0.6097117495670564,1.1337481161086533,-161896107624.7708,0.0,439830782339.5739,0.6963657592464987,-0.23864523770016,0.6218574231169716,0.2672387045066659,-0.05636166013536896,-0.051114906467296765,-0.6097117495670564
16.8,-61.72413776179789,15.209063173621391,270.66760024688773,278.0326142891615,0,9.69476240686503,220.5045198979427,11.032333099938278,19.022253341562923,0.025199545852435338,0.022593283229394676,0.029168675173549617,0.11983060633404825,0.1601430810273286,0.14315997032457287,-1.0977943656732545,1.1161008465171993,-161896107624.7708,0.0,439830782339.5739,0.875508624115123,-0.12444338233354105,0.32521540482573125,0.33501258805822237,0.1601430810273286,0.14315997032457287,-1.0977943656732545
17.01,-61.72186686395517,15.211091013723117,270.69424834885643,278.05816339059703,0,9.690013423783132,220.775021494724,11.032326437912786,19.023141611628546,0.01081379925104942,0.009656381436786036,0.1268957236604923,0.09662468992725423,-0.06850355524469456,-0.061604294250517076,0.46536689755686794,0.7671076457583524,-161896107624.7708,0.0,439830782339.5739,0.6971503271868563,-0.23730787536425954,0.6220366790787896,0.2659638386585497,-0.06850355524469456,-0.061604294250517076,0.46536689755686794
17.11,-61.71959329747191,15.213113303717465,270.6968666497905,278.0603183253798,0,9.687343775459846,220.90102607307088,11.032325783337551,19.02322888832635,0.022735664832609845,0.02022289994348768,0.02618300934045748,0.07794071070514852,0.1192186558156068,0.10566518506701868,-1.0071271432003697,0.8612525663527938,-161896107624.7708,0.0,439830782339.5739,0.8762942904120181,-0.12367199765398501,0.32512067878210016,0.33333181338695633,0.1192186558156068,0.10566518506701868,-1.0071271432003697
17.3,-61.7173168724849,15.21512993900903,270.7236344294899,278.0859824221849,0,9.681944023696332,221.13542212361364,11.032319091392628,19.024121147649666,0.011981184142154166,0.010613869955602474,0.14088305104953658,0.09749881704218173,-0.05660252994976635,-0.05057384204150074,0.6036844300477807,0.7639029608846541,-161896107624.7708,0.0,439830782339.5739,0.697480334096069,-0.23615907599971553,0.622723711787199,0.26450945758170913,-0.05660252994976635,-0.05057384204150074,0.6036844300477807
17.41,-61.715037909191054,15.217140935126428,270.7260634698026,278.08795141866176,0,9.67836121181027,221.26811091169353,11.03231848413255,19.02420211566009,0.020717848125881143,0.018281782885442216,0.02208218466121677,0.12314058431255726,0.07942421803388201,0.06970829936217984,-1.0800078762574583,0.8959559965371696,-161896107624.7708,0.0,439830782339.5739,0.8827128646506182,-0.11698986571293148,0.3093945668369997,0.33377593069680006,0.07942421803388201,0.06970829936217984,-1.0800078762574583
17.6,-61.712756167846365,15.219146187723307,270.75296185463577,278.11374118797727,0,9.671838252821594,221.49206935496062,11.032311759536341,19.02509872848786,0.012009164972045844,0.010553961036205211,0.14157044649024053,0.12026180127088111,-0.04583517449386969,-0.04067274657493133,0.628885588573805,0.925837152318017,-161896107624.7708,0.0,439830782339.5739,0.6977931116358665,-0.23501269533214836,0.6234261837357145,0.26304676355921414,-0.04583517449386969,-0.04067274657493133,0.628885588573805
17.7,-61.710471838764775,15.221145682579307,270.778374169965,278.1380835638709,0,9.66823268727574,221.6072705583609,11.032305406457509,19.0259458056655,0.022843290815899794,0.019994948559994157,0.2541231532922038,0.1364630338966287,0.10834125843854181,0.09440987523789147,1.1255270680196567,1.1689877823866066,-161896107624.7708,0.0,439830782339.5739,0.7000599966946792,-0.23354656388176384,0.6214069870168827,0.26310712649692064,0.10834125843854181,0.09440987523789147,1.1255270680196567
17.9,-61.7081851523171,15.223139405601037,270.7825354038452,278.1417364724138,0,9.6599671980035,221.83212031178587,11.032304366149038,19.026084513461505,0.011433432238376935,0.009968615108650915,0.02080616940105536,0.15685623953399716,-0.0570492928876145,-0.05013166725671639,-1.1665849194557463,1.0419225453422072,22.21061575817594,0.0,-0.08181296262876288,0.8346998620554654,-0.15904751330322028,0.4244361611740791,0.3127842289573757,-0.0570492928876145,-0.05013166725671639,-1.1665849194557463
18.01,-61.70589578892984,15.225127232823045,270.80685464642,278.16501325266836,0,9.655308430259389,221.95262027996372,11.032298286338394,19.026895154880666,0.02081239442966044,0.018071156563708283,0.22108402340718197,0.13689681907569584,0.08526329264802955,0.0736594677732468,1.8207077636920106,1.1301447278535712,7.575172093816997,0.0,0.07926050748474012,0.702177350368469,-0.23163408028257837,0.620071251799398,0.2623056693498784,0.08526329264802955,0.0736594677732468,1.8207077636920106
18.2,-61.70360401908413,15.22710918040879,270.83277208993167,278.1898453230328,0,9.64654597866023,222.15543897824057,11.032291806977517,19.02775906966439,0.012061946556342277,0.010431303082872009,0.1364075974298614,0.11112906575592303,-0.04605498880693826,-0.04020975516229666,-0.44566539988063997,1.000514696307578,7.575172093816997,0.0,0.07926050748474012,0.7000582533756005,-0.2320177984008798,0.6229848492123864,0.2607221907658275,-0.04605498880693826,-0.04020975516229666,-0.44566539988063997
18.3,-61.70131002331465,15.229085224651604,270.8357792287307,278.19237229982895,0,9.641546575953903,222.25947103435806,11.032291055192816,19.027859307624357,0.02293995769484492,0.019760442428129184,0.030071387990346494,0.11442740309895119,0.1087801113850249,0.09329139345257043,-1.0633620943951338,0.9624284285021533,7.575172093816997,0.0,0.07926050748474012,0.8667106400198477,-0.13266087372733548,0.35727195779787957,0.3218237207378539,0.1087801113850249,0.09329139345257043,-1.0633620943951338
18.5,-61.69901354220843,15.231055251975668,270.8610167592846,278.21654105398517,0,9.631160573543445,222.46189603116898,11.032284745810179,19.02870055864282,0.01148240553110473,0.009850136620324114,0.12618765276954536,0.09669517450574609,-0.057287760818701156,-0.04955152903902553,0.48058132389599606,0.7024698474271545,7.575172093816997,0.0,0.07926050748474012,0.7014942656693833,-0.23039020473660704,0.6224164193189666,0.2596612211258228,-0.057287760818701156,-0.04955152903902553,0.48058132389599606
18.6,-61.696714946403794,15.233019298936972,270.86396658018765,278.21901067988256,0,9.625582231959704,222.56027997522926,11.032284008354953,19.028798886006257,0.02298595804631954,0.019640469613033396,0.029498209030407032,0.08135738981368247,0.11503552515214645,0.09790332992709143,-0.9668944373913695,0.7766592830023169,7.575172093816997,0.0,0.07926050748474012,0.8689361678201281,-0.13051931979872045,0.35367021127429593,0.32067432867403767,0.11503552515214645,0.09790332992709143,-0.9668944373913695
18.8,-61.69441393658924,15.234977242224256,270.8906227921698,278.2445592626744,0,9.614058616464888,222.75136889183602,11.032277344301956,19.02968742640566,0.011505049072759774,0.009789716436419162,0.13328105991064423,0.1156065281004605,-0.05740454486779903,-0.04925376588307134,0.5189142544011879,0.7235587930003836,7.575172093816997,0.0,0.07926050748474012,0.6999987302295817,-0.22997400069326848,0.6251408771640652,0.2575123693740732,-0.05740454486779903,-0.04925376588307134,0.5189142544011879
18.9,-61.692110943502286,15.236929148659975,270.89588279810465,278.24927651210726,0,9.607930057710307,222.8440653715732,11.032276029300473,19.029862759936822,0.02302993086956966,0.0195190643571945,0.05260005934872082,0.17710281209364748,0.11524881796810132,0.09729347920775544,-0.8068100056192513,1.0675641574590207,7.575172093816997,0.0,0.07926050748474012,0.812460629799095,-0.17255246622897266,0.47046547905743646,0.29798591315700534,0.11524881796810132,0.09729347920775544,-0.8068100056192513
19.1,-61.68980571792839,15.238874885201255,270.9385601030191,278.29042166050175,0,9.595425463610212,223.02374177495693,11.032265359974245,19.031285336767304,0.01152612786949431,0.009728682706402342,0.2133865245721692,0.24379185130192083,-0.05751901500037593,-0.04895190825396009,0.8039323261172304,0.9319067584584655,7.575172093816997,0.0,0.07926050748474012,0.6871255075081515,-0.234091752031051,0.6402709478408265,0.2512224152294292,-0.05751901500037593,-0.04895190825396009,0.8039323261172304
19.2,-61.68749840069981,15.240814408940842,270.981912714101,278.3322239715998,0,9.589110074511659,223.11071371301512,11.032254521821475,19.032730423803365,0.02307317228577737,0.01939523739586987,0.4335261108190117,0.29977048203086276,0.11547044416283306,0.09666554689467735,2.201395862468472,0.9079209262792949,7.575172093816997,0.0,0.07926050748474012,0.6870105606140452,-0.2335882147780732,0.6409027866251514,0.25039299833997686,0.11547044416283306,0.09666554689467735,2.201395862468472
19.4,-61.68518935269449,15.242747907108043,271.05698944070764,278.40491280488806,0,9.575799922451477,223.27890573501014,11.032235752639822,19.03523298135692,0.011545240026578127,0.009667490836005078,0.3753836330332674,0.3491126161697852,-0.057639661295996424,-0.04863873279932413,-0.2907123889287227,0.8507706763105698,7.575172093816997,0.0,0.07926050748474012,0.677774887481501,-0.23661522643937843,0.6511314109668173,0.24629722322600778,-0.057639661295996424,-0.04863873279932413,-0.2907123889287227
19.5,-61.68287811483494,15.244675027069672,271.0982826943736,278.4447098600529,0,9.568902256951475,223.36011834377368,11.032225429326406,19.036609423145787,0.023112378595513076,0.019271199616283933,0.41293253665969,0.33815871997961633,0.11567138568934784,0.09603708780278718,0.3754890362642207,0.9921709879740149,7.575172093816997,0.0,0.07926050748474012,0.6885762689941176,-0.23189299847806755,0.640222154420507,0.24940720122754273,0.11567138568934784,0.09603708780278718,0.3754890362642207
19.7,-61.680565228087126,15.246595996330985,271.1596807888186,278.5040813019185,0,9.554338420270977,223.5167587098137,11.032210079802795,19.038656026293953,0.011564433739081934,0.009604846306565697,0.30699047222498277,0.32208151596787565,-0.057739724282155916,-0.04833176654859135,-0.529710322173538,0.7490141468947862,7.575172093816997,0.0,0.07926050748474012,0.681140304068311,-0.23422320789469442,0.648601897370696,0.24597348187229556,-0.057739724282155916,-0.04833176654859135,-0.529710322173538
19.8,-61.678250113459264,15.248510342536628,271.1753096399552,278.51889013682796,0,9.54662900696317,223.59217950532195,11.03220617259001,19.03917698799851,0.023151146278621252,0.019143462056429868,0.15628851136568533,0.3113405066826753,0.11586712539539154,0.09538615749864035,-1.507019608592953,0.7619515149287566,7.575172093816997,0.0,0.07926050748474012,0.7254108850847704,-0.21566879831296717,0.5992560852515633,0.26107118095213405,0.11586712539539154,0.09538615749864035,-1.507019608592953
20.0,-61.675933442000826,15.250418493471557,271.2460833658961,278.58738982859006,0,9.531055687310324,223.73720556134907,11.032188479158526,19.041536112196535,0.011583357292188665,0.009540754674644027,0.3538686297045514,0.3122754332760221,-0.05783894493216314,-0.04801353690892938,0.9879005916943339,0.7800547172364377,7.575172093816997,0.0,0.07926050748474012,0.6795134355109976,-0.23369540376729842,0.6513077364433991,0.24381587656888962,-0.05783894493216314,-0.04801353690892938,0.9879005916943339
20.1,-61.673614994801326,15.25232008706199,271.2781414869612,278.6181941352447,0,9.522962541520014,223.80680437628936,11.03218046462826,19.042604716232038,0.023184471994994408,0.019015935904338206,0.32058121065119394,0.33474243330714293,0.11601114702805579,0.09475181229694045,-0.33287419053357,0.7029503232581702,7.575172093816997,0.0,0.07926050748474012,0.6961187650741814,-0.22676326610058156,0.6340460435454368,0.24896325175288744,0.11601114702805579,0.09475181229694045,-0.33287419053357
20.3,-61.67129483298923,15.254215281376313,271.36182832568534,278.6992672442588,0,9.506429765559973,223.94015811381485,11.032159542918578,19.045394277522846,0.01160080906046805,0.009475971571610875,0.41843419362067075,0.3957488868075279,-0.05791831467263199,-0.04769982166363683,0.48926491484738577,0.48159059111689917,7.575172093816997,0.0,0.07926050748474012,0.6778548976062829,-0.2331652436707626,0.6540232874910081,0.24166142918261424,-0.05791831467263199,-0.04769982166363683,0.48926491484738577
20.4,-61.668973017730785,15.256103854626007,271.40369080682416,278.73961742359296,0,9.497894209975001,224.00390710958922,11.032149077298294,19.046789693560804,0.023218152584477066,0.01888573249694088,0.4186248113882219,0.4151245188963365,0.11617343524009263,0.09409760925330206,0.0019061776755114185,0.3013656211812571,7.575172093816997,0.0,0.07926050748474012,0.6896383829272636,-0.22816607123254318,0.642093667983319,0.24506094398639328,0.11617343524009263,0.09409760925330206,0.0019061776755114185
20.51,-61.66664927022893,15.257985905166583,271.4546631573614,278.7888375024657,0,9.488348336249008,224.0717720395872,11.032136334210659,19.048488771912044,0.021124977289587715,0.01710955036887526,0.4633850048838252,0.40627162085840973,-0.01902886631717541,-0.016147110255141546,0.4069108499600193,0.4018387805986351,1232337002636.1038,0.0,-229534820123.2894,0.6857785343200544,-0.22904775600598504,0.6467262673869891,0.24287869895516467,-0.01902886631717541,-0.016147110255141546,0.4069108499600193
20.7,-61.664324381722196,15.259861391498497,271.54031340651494,278.8718237399583,0,9.471331260063305,224.1834088667562,11.03211492164837,19.051343780217167,0.012236255298603428,0.009870980694281583,0.45079078501873876,0.5306326917129986,-0.046782747320970486,-0.03809773512944087,-0.06628536771098219,1.8286635496374242,1232337002636.1038,0.0,-229534820123.2894,0.6782883242014859,-0.2312762251014306,0.6550452891852461,0.239482621647145,-0.046782747320970486,-0.03809773512944087,-0.06628536771098219
20.9,-61.66199781348346,15.261730122268043,271.5957763857436,278.92541678959594,0,9.452386930748661,224.29326263823438,11.032101055903563,19.053192546191454,0.011632841193680618,0.009343653847730981,0.27731489614325355,0.5176534932027926,-0.003017070524614061,-0.0026366342327530197,-0.8673794443774291,3.171830879109913,1232337002636.1038,0.0,-229534820123.2894,0.6847005138343905,-0.22831771317660707,0.6488511489921205,0.2409323860678164,-0.003017070524614061,-0.0026366342327530197,-0.8673794443774291
21.0,-61.65966970681899,15.263592106268318,271.6997844287526,279.0262800722742,0,9.443416577585273,224.3452378494807,11.032075053892811,19.05665948095842,0.023281066644713303,0.018619840002749036,1.0400804300900142,0.4895542138027452,0.11648225451032519,0.09276186155017922,7.6276553394674975,3.1239755310593234,1232337002636.1038,0.0,-229534820123.2894,0.6767525713663852,-0.2306367656273864,0.657633161652519,0.23734208262513373,0.11648225451032519,0.09276186155017922,7.6276553394674975
21.1,-61.657340373067115,15.265447362440053,271.7351389714996,279.0602932287499,0,9.433587048984613,224.39524216856668,11.032066215257124,19.057837965716654,0.02329333751873686,0.018552561717352936,0.3535454274702892,0.43700933457623065,0.0001227087402355647,-0.0006727828539609864,-6.865350026197152,3.3823717001589664,1232337002636.1038,0.0,-229534820123.2894,0.694945392830556,-0.22333194809177542,0.638871588354906,0.24293380896449185,0.0001227087402355647,-0.0006727828539609864,-6.865350026197152
21.3,-61.65500972359726,15.26729592987259,271.7998076522006,279.1228510688447,0,9.413353756789146,224.4893293283274,11.03205004808695,19.059993588406687,0.011653247349272575,0.00924283716268629,0.32334340350502205,0.4902199298375657,-0.05820045084732163,-0.046548622773333395,-0.15101011982633636,3.5667879597305174,1232337002636.1038,0.0,-229534820123.2894,0.6829038818330476,-0.22725135379677625,0.6522125429290679,0.23794518112558244,-0.05820045084732163,-0.046548622773333395,-0.15101011982633636
21.4,-61.65267775980871,15.269137577804754,271.81840581133497,279.1405469922639,0,9.402844921386642,224.53340798736608,11.032045398547165,19.0606135270445,0.023319637885493235,0.018416479321637206,0.18598159134342437,0.33810222741322854,0.1166639053622091,0.09173642158951112,-1.3736181216160062,2.305006400258127,1232337002636.1038,0.0,-229534820123.2894,0.7187435297830828,-0.2128754156413422,0.6130237021241901,0.24958713196884333,0.1166639053622091,0.09173642158951112,-1.3736181216160062
21.6,-61.65034448312956,15.270972415625735,271.9271190916509,279.24599490573223,0,9.382038112473875,224.61562566862588,11.032018220227087,19.06423730305503,0.011666383395762925,0.00917418910490562,0.5435664015797592,0.6101302276537858,-0.05826627244865072,-0.046211451083657276,1.7879240511816488,3.802399555415821,-2347414247427.0415,0.0,237667532879.8133,0.6772763824981067,-0.22808778165925994,0.6590364785105456,0.2344004811438214,-0.05826627244865072,-0.046211451083657276,1.7879240511816488
21.8,-61.648010055015476,15.272800272876012,271.9830243381707,279.30001987120664,0,9.360038138624455,224.68991180060564,11.032004243915457,19.066100811272356,0.011672140570411257,0.00913928625138286,0.2795262325989266,0.7749458627707974,2.878587324166303e-05,-0.00017451426761379694,-1.3202008449041678,4.800064805605115,1841116660942.5508,0.0,470371915526.7921,0.6859325067129255,-0.22437854462516169,0.6505184975565194,0.2365936374529658,2.878587324166303e-05,-0.00017451426761379694,-1.3202008449041678
21.9,-61.645674596948666,15.274621339248247,272.1544924981951,279.4665830479924,0,9.350226709833542,224.72407635352403,11.03196137687545,19.071816416606502,0.02335458066809842,0.018210663722353748,1.7146816002440712,1.0432339775393742,0.11682440097687412,0.09071377470971081,14.35155367645175,4.90619571638842,2892159481214.5728,0.0,235400508110.2772,0.6744416957680439,-0.22789814274807418,0.6628936031398838,0.23186829549924662,0.11682440097687412,0.09071377470971081,14.35155367645175
22.01,-61.64333777043665,15.276435244588152,272.2807118213085,279.58908525759847,0,9.338622115317586,224.75936147849427,11.031929822044672,19.07602372737695,0.02124387738194539,0.016490048544587414,1.147448391939871,1.2941680237145419,-0.019188211692299756,-0.01564195616151171,-5.156665530038044,5.0860848671642405,1446079740607.2979,0.0,117700254054.96683,0.6767358218710587,-0.22645770864321502,0.6610609577405662,0.23182740076119687,-0.019188211692299756,-0.01564195616151171,-5.156665530038044
22.21,-61.641000067011205,15.278242098895365,272.58665375938295,279.8866223645415,0,9.317787581159998,224.81734819391818,11.031853336560154,19.086221791979433,0.011688517127232997,0.009034271536068094,1.529709690372277,1.681787412519515,-0.04777680127356213,-0.03727888504259673,1.9113064921620373,5.264147849204131,0.057900165945637384,0.0,-0.29760079189646965,0.6724041415304699,-0.22736093346590677,0.6659418590200179,0.2295672380614144,-0.04777680127356213,-0.03727888504259673,1.9113064921620373
22.31,-61.6386613682272,15.280041912324384,272.7664734665825,280.06133846624607,0,9.307399413942523,224.84335436165958,11.031808381633354,19.092215782219416,0.02338698784008436,0.017998134290185094,1.7981970719955982,1.8412716876599542,0.11698470712851614,0.0896386275411719,2.684873816233268,2.688039587064457,0.21110665253425723,0.0,-0.2976609543244805,0.6748895728600303,-0.22588954799831434,0.6639046383989209,0.22962710567857883,0.11698470712851614,0.0896386275411719,2.684873816233268
22.5,-61.636321625661424,15.281834545185395,273.18788619936754,280.47137425535425,0,9.288025255769519,224.88727439718247,11.031703028450158,19.106262873312254,0.012314434556702055,0.009434909794797892,2.217961751500139,2.109972328531814,-0.05827659622832754,-0.04506960260730076,2.2092877868659886,1.7009833271604198,0.3169065669190118,0.0,-0.23950059019671316,0.6720015222328807,-0.226251975248636,0.6673177124629973,0.22784000624546608,-0.05827659622832754,-0.04506960260730076,2.2092877868659886
22.7,-61.63398082091149,15.283619967945173,273.69034931649816,280.9603956790776,0,9.267613398223489,224.92572553980804,11.031577412670876,19.123011643883274,0.01170402374967243,0.008927113798886697,2.512315585653093,2.4415510144197667,-0.0030520540351481403,-0.0025389799795559873,1.471769170764777,2.8661058206543166,0.12415366665611316,0.0,-0.12901359104073556,0.6718685705696311,-0.22565884388744567,0.6679435410733678,0.226984880541573,-0.0030520540351481403,-0.0025389799795559873,1.471769170764777
22.81,-61.63163929559469,15.285398311227937,273.9643728790383,281.22691900100875,0,9.256101927167604,224.94346972623535,11.03150890678024,19.132145762634607,0.021286593789100985,0.016166757116034883,2.491123295819568,2.6762206544033527,0.0871142730857146,0.06581493924680204,-0.19265718030477627,2.5448254524994196,265441723755.899,0.0,120046247876.16263,0.6737275546180372,-0.2244179699192194,0.6665372238418824,0.22683889913084154,0.0871142730857146,0.06581493924680204,-0.19265718030477627
22.9,-61.62929697134686,15.28716942581623,274.25124855035875,281.5059770691676,0,9.24717363829193,224.9561900051043,11.03143718786241,19.14170828501196,0.026025824975859164,0.019679050981046182,3.187507459116058,2.5361660746552737,0.052658124297313175,0.039025487389014485,7.737601814405459,3.5568010872879574,530883447511.714,0.0,240092495752.40204,0.6738035805860921,-0.22376548821613695,0.6669416131146602,0.22606774597180085,0.052658124297313175,0.039025487389014485,7.737601814405459
23.1,-61.62695368982122,15.28893319265179,274.84559879614056,282.08462573643715,0,9.226466544080347,224.97866237724656,11.031288600300964,19.161519959871352,0.01171640762819931,0.00881883417779493,2.971751228909014,3.242853888261942,-0.07154708673829825,-0.05430108401625549,-1.0787811510352043,12.318602435934125,283158703636.10223,0.0,484287814979.8514,0.6722804327061359,-0.2236298116137066,0.6689711726812323,0.2247360613688102,-0.07154708673829825,-0.05430108401625549,-1.0787811510352043
23.3,-61.62460966268724,15.290689702836392,275.1491332843781,282.3799625589809,0,9.20226010777742,224.99313866120556,11.031212716678905,19.171637776145936,0.011720135669897089,0.008782550923012198,1.5176724411875906,3.30113610282946,1.8640208488893207e-05,-0.0001814162739136565,-7.270393938607144,15.53743414670773,283158703636.10223,0.0,484287814979.8514,0.6740955243021993,-0.22238764527710375,0.6676218439422704,0.224544055443404,1.8640208488893207e-05,-0.0001814162739136565,-7.270393938607144
23.4,-61.62226509162956,15.292438907632718,275.7537059853818,282.9686707171646,0,9.19446664599207,224.9973774103485,11.031061573503655,19.191790199512727,0.023445710576837586,0.017492047963259354,6.045727010037596,3.112354632194966,0.11725574906940747,0.08709497040247342,45.28054568850102,15.068375598714605,283158703636.10223,0.0,484287814979.8514,0.6727234494921042,-0.22222099211376461,0.6694763914734937,0.22329879629556473,0.11725574906940747,0.08709497040247342,45.28054568850102
23.6,-61.619919668346704,15.294180628465211,276.31023387178107,283.51062026546373,0,9.171923870258162,224.99985518102872,11.030922441532054,19.210341129059366,0.011727116414270544,0.008708604162466093,2.7826394319961483,3.080093318207124,-0.05859297081283438,-0.04391721900396568,-16.315437890207008,15.985377578438218,283158703636.10223,0.0,484287814979.8514,0.6731093335977729,-0.22142942204371216,0.6695852277514609,0.2225948311483757,-0.05859297081283438,-0.04391721900396568,-16.315437890207008
23.7,-61.61757409455014,15.295914896920932,276.53459161852595,283.72886848443204,0,9.159901392705136,224.9980940924433,11.030866352095368,19.21781972061753,0.023455737965605794,0.017342684557207038,2.2435774674489064,3.311890002348843,0.117286215513355,0.0863408039474113,-5.390619645472533,14.665735453104826,283158703636.10223,0.0,484287814979.8514,0.6759317836777581,-0.21987061963539367,0.6672004834241819,0.22274795027988592,0.117286215513355,0.0863408039474113,-5.390619645472533
23.8,-61.61522790196297,15.29764192475039,276.81562460289035,284.0023665080223,0,9.148306213142776,224.99433309597197,11.030796093849277,19.22718748676301,0.023461925871756883,0.01727027829458525,2.8103298436439728,2.6424539226340205,6.187906151089351e-05,-0.0007240626262178842,5.667523761950583,5.661906070644809,283158703636.10223,0.0,484287814979.8514,0.6752880326363512,-0.21945404675764413,0.6683240399979476,0.2217407763597886,6.187906151089351e-05,-0.0007240626262178842,5.667523761950583
24.0,-61.612881402318855,15.299361283868388,277.3509620044733,284.52376655597214,0,9.124435981147034,224.98081213686774,11.03066225949888,19.245032066815778,0.011732498220560258,0.008596795589985749,2.676687007914618,2.762724771440509,-0.05864713825598333,-0.04336741352299765,-0.6682141786467756,3.084479806092951,283158703636.10223,0.0,484287814979.8514,0.6738791906232847,-0.2192679006538645,0.670227314949304,0.22046262831509575,-0.05864713825598333,-0.04336741352299765,-0.6682141786467756
24.1,-61.61053440736092,15.301073316354886,277.6208081052008,284.78640046107853,0,9.11231926788499,224.9710527751641,11.0305947979737,19.254026936840027,0.023469949579321914,0.017120324864982918,2.698461007275303,2.8607851508547086,0.11737451358761489,0.08523529274997048,0.21773999360684607,3.3064548466334167,283158703636.10223,0.0,484287814979.8514,0.6758989977909671,-0.21796572790506827,0.6686616656295586,0.22032490363434673,0.11737451358761489,0.08523529274997048,0.21773999360684607
24.3,-61.60818642884051,15.302777644455816,278.29760828932797,285.4457959372439,0,9.089057586037809,224.94553845617358,11.030425597927668,19.2765869429776,0.011739892602058474,0.00852164050464846,3.384000920635811,2.958702736544409,-0.058650284886317405,-0.04299342180167244,3.427699566802552,2.7392573138657825,283158703636.10223,0.0,484287814979.8514,0.6739865683231686,-0.21789150284256642,0.6711034890078338,0.21882757081885035,-0.058650284886317405,-0.04299342180167244,3.427699566802552
24.4,-61.605838788516145,15.30447454058391,278.57099984343995,285.71193231570476,0,9.07657999510314,224.9297846328522,11.03035725003914,19.285699994781332,0.023476403243663457,0.016968961280952405,2.7339155411198717,3.044851551791472,0.11736510641605233,0.08447320776304125,-6.500853795159532,2.9557986686369397,283158703636.10223,0.0,484287814979.8514,0.6763199691555895,-0.21652853809113706,0.6691920324452529,0.21883490403792763,0.11736510641605233,0.08447320776304125,-6.500853795159532
24.6,-61.603490268152306,15.306164037319547,279.2310072564529,286.3550664545835,0,9.052371332556314,224.8922871593628,11.030192248185886,19.307700241881765,0.011742601819193343,0.008447483678182146,3.3000370650648376,3.0941679069532646,-0.05866900712234974,-0.04260738801385069,2.8306076197247894,3.0746060111668085,15018825007.518316,0.0,-5297476326.782942,0.6744834351700143,-0.2164514742369815,0.6715333745150864,0.21740235025011895,-0.05866900712234974,-0.04260738801385069,2.8306076197247894
24.71,-61.601141979518374,15.307845687411568,279.57281681961564,286.68796754873534,0,9.03862899354893,224.8682612775204,11.030106795795096,19.319093893987187,0.021348078490293996,0.0152877281092792,3.107359665115584,2.748386574994117,0.08732251519182456,0.06218404028270082,-1.7516127268114043,3.679009375064183,5436591924.71542,0.0,239747540640.5663,0.6760821457074766,-0.21528560775717076,0.6703933260789389,0.21711247706434889,0.08732251519182456,0.06218404028270082,-1.7516127268114043
24.9,-61.598793514387395,15.309519813778099,280.13239722650997,287.2332723331818,0,9.014231019021729,224.82107954624416,11.029966900693372,19.337746574217,0.012360342794624562,0.008811191402794686,2.945160036285965,3.4135673903598933,-0.04730387208247127,-0.03408703529728733,-0.8536822569980063,11.188248030005823,201592506573.87793,0.0,-242269842005.36493,0.6752097845517148,-0.21491890361108312,0.6717387036106407,0.21602945583353386,-0.04730387208247127,-0.03408703529728733,-0.8536822569980063
25.1,-61.59644500453499,15.311185979507362,280.4634097730513,287.5556966481837,0,8.985495933958338,224.76364584287256,11.029884147556738,19.348780325768374,0.011742549262016955,0.008330828646316728,1.65506273270663,3.3144677054346645,-0.0030889676630379936,-0.0024018137823897568,-6.450486517896582,13.877343891998327,405420915437.5619,0.0,6319554043.221582,0.6766434793053602,-0.21377776122113182,0.6707828841475789,0.2156455263980057,-0.0030889676630379936,-0.0024018137823897568,-6.450486517896582
25.2,-61.59409602173825,15.312844727858508,281.0694002574889,288.1463580188011,0,8.975355301623052,224.7319440989134,11.029732649935628,19.368980008582962,0.023489827967396126,0.01658748351145469,6.059904844376107,3.378146891108115,0.11747278705379421,0.0825665486513814,44.048421116695714,14.769121394278136,405420915437.5619,0.0,6319554043.221582,0.6755523694937939,-0.21346453874370036,0.6723542666281367,0.21447989863201652,0.11747278705379421,0.0825665486513814,44.048421116695714
25.4,-61.5917475877745,15.314495692262401,281.6303069804064,288.6931016825695,0,8.94821553070147,224.66257787119167,11.029592423254899,19.38767689934688,0.01174216981876701,0.00825482201946673,2.8045336145874087,3.0775083636716034,-0.05873829074314579,-0.04166330745993995,-16.27685614894355,16.58185020478253,405420915437.5619,0.0,6319554043.221582,0.675902992908419,-0.21271704969935284,0.6724526177220835,0.21380850746254723,-0.05873829074314579,-0.04166330745993995,-16.27685614894355
25.5,-61.58939914442021,15.316138566322456,281.9728816447214,289.0268917775326,0,8.935096251230048,224.6249164703611,11.02950677958882,19.39909605482405,0.02348443354286156,0.016428740600548986,3.4257466431500427,3.9664142054630673,0.11742263724094384,0.0817391858108214,6.212130285626253,24.60710054719745,405420915437.5619,0.0,6319554043.221582,0.6772412214185892,-0.21159358521191898,0.6715989903213411,0.2133712232424492,0.11742263724094384,0.0817391858108214,6.212130285626253
25.7,-61.587051233449905,15.317773583815404,282.2612687556854,289.30783416071864,0,8.904557128310831,224.54364546385537,11.029434682811079,19.408708958522848,0.01173955485153759,0.00817508746473908,1.4419355548201958,3.326487496971042,-0.05872439345662006,-0.041268265679049676,-9.91905544164927,18.882431466073964,405420915437.5619,0.0,6319554043.221582,0.6779915616011526,-0.21070834046550924,0.6712985154005298,0.21280916539694944,-0.05872439345662006,-0.041268265679049676,-9.91905544164927
25.8,-61.584703036634906,15.319401058692115,282.8712275208833,289.9025544145461,0,8.893782090320075,224.50003947021156,11.029282193119778,19.429040917362776,0.023481968149993926,0.01627474876711309,6.099587651978508,3.398541057800221,0.1174241329845617,0.08099661302373895,46.57652097158246,16.304600643766403,405420915437.5619,0.0,6319554043.221582,0.6764670854446864,-0.21051637181099167,0.6733059370720405,0.21150473898484956,0.1174241329845617,0.08099661302373895,46.57652097158246
26.01,-61.58235518574231,15.321020625078406,283.47189205023255,290.48826779365066,0,8.864007371422817,224.40203165560322,11.029132026987442,19.449063068341083,0.011180242345702772,0.0077122208870979295,2.860307282615578,3.3472910325506207,-0.058579646687100494,-0.04077394228578632,-15.42514461601389,15.073409335776528,405420915437.5619,0.0,6319554043.221582,0.6767220896086696,-0.20976551013806735,0.6735162967914438,0.21076394888246877,-0.058579646687100494,-0.04077394228578632,-15.42514461601389
26.1,-61.580008092533745,15.322631837275786,283.7567132559826,290.76580397449624,0,8.851380837055933,224.3573630475999,11.029060821686004,19.45855710853275,0.02607881342847745,0.01790235774866826,3.164680063889596,3.6303567776441286,0.1655396786974967,0.11322374290633719,3.3819197919335364,13.402059664116475,245947173.60441247,0.0,257308984844.92773,0.678725407468788,-0.20845121176945625,0.671975179342348,0.21054517785024776,0.1655396786974967,0.11322374290633719,3.3819197919335364
26.2,-61.577661238764286,15.324235159762303,284.07366215271367,291.0747087531341,0,8.837259906350814,224.30585847190287,11.028981584461821,19.469122071757123,0.023468537694598057,0.016033224865168793,3.169488967310553,3.0418555403224063,-0.02610275733879449,-0.01869132883499507,0.04808903420956959,4.686820879950781,245947173.60441247,0.0,257308984844.92773,0.6786153498138912,-0.20780596016292027,0.6725571363120717,0.20967782027062928,-0.02610275733879449,-0.01869132883499507,0.04808903420956959
26.4,-61.57531505618131,15.325830757193271,284.6451221573353,291.6320388445523,0,8.80809645155065,224.19694427119282,11.028838719460666,19.488170738577843,0.011730912914877975,0.007977987154843574,2.8573000231082903,3.0636206457546713,-0.05868812389860062,-0.040276188551626235,-1.560944721011318,1.7901837379476864,245947173.60441247,0.0,257308984844.92773,0.6774890002845819,-0.20751247198858078,0.6741335681929984,0.20854534446484793,-0.05868812389860062,-0.040276188551626235,-1.560944721011318
26.5,-61.572969016523366,15.327417844402083,284.9608242890851,291.9397739788148,0,8.793669325470615,224.13953948679304,11.028759793927728,19.498694142969505,0.023460396579437437,0.01587087208811488,3.157021317497834,2.7219631378854205,0.11729483664559295,0.07892884933271195,2.997212943895395,2.6252606070366307,245947173.60441247,0.0,257308984844.92773,0.6790942373385318,-0.20626792707495462,0.6730288081366785,0.20812684231477907,0.11729483664559295,0.07892884933271195,2.997212943895395
26.7,-61.57062382151898,15.328997146400985,285.55465056952715,292.5190221732086,0,8.764157845355884,224.018847306362,11.028611337357617,19.518488352317572,0.011725975021938992,0.007896509994509443,2.969131402210234,3.2596973058597074,-0.058672107787492433,-0.03987181046802733,-0.939449576438004,11.41721580860117,245947173.60441247,0.0,257308984844.92773,0.6778949556122139,-0.20599284973513465,0.6746749726058298,0.20697598013498023,-0.058672107787492433,-0.03987181046802733,-0.939449576438004
26.9,-61.56827938288556,15.330567858381833,285.84594702254924,292.80297943540046,0,8.731257634545745,223.89032966901024,11.028538513244362,19.528198234084975,0.011722193167109693,0.007853559904242885,1.4564822651104288,3.270264380585418,-1.890927414649475e-05,-0.000214750451332791,-7.563245685499053,17.001071912121976,245947173.60441247,0.0,257308984844.92773,0.6798005610425458,-0.20468305720581095,0.6732468031893548,0.20667555562871168,-1.890927414649475e-05,-0.000214750451332791,-7.563245685499053
27.0,-61.56593579232825,15.332130775716871,286.4317689743622,293.3744995085483,0,8.719077450211282,223.82314338951878,11.02839205775641,19.54772563247874,0.023435905573094495,0.01562917335037972,5.858219518129802,3.2226501876137226,0.11713712405984636,0.07775613446136725,44.01737253019311,16.41768201969553,245947173.60441247,0.0,257308984844.92773,0.6783755273228645,-0.20446730595051027,0.6751213885307823,0.20545285462858442,0.11713712405984636,0.07775613446136725,44.01737253019311
27.1,-61.56359279153878,15.333684993959496,286.7227724534966,293.65821305782674,0,8.703863605886283,223.75400942197925,11.028319306886626,19.557425748449887,0.023430007894659988,0.015542182426244501,2.910034791343564,3.210883393525001,-5.897678434507641e-05,-0.0008699092413521883,-29.481847267861962,16.262344447661896,245947173.60441247,0.0,257308984844.92773,0.6802642935688163,-0.20314041800500388,0.673723444279644,0.20511260833026543,-5.897678434507641e-05,-0.0008699092413521883,-29.481847267861962
27.3,-61.561250862194356,15.335231318844997,287.3065811908001,294.2278513718005,0,8.673204767092841,223.60991079962054,11.0281733547023,19.57688603969334,0.011709646722124531,0.007731624427504996,2.9190436865175786,3.4958367075489534,-0.05860180586267749,-0.03905278999369766,0.045044475870073146,14.781834174043983,245947173.60441247,0.0,257308984844.92773,0.6788447980994299,-0.20291734844652623,0.6755894241280584,0.2038951196058736,-0.05860180586267749,-0.03905278999369766,0.045044475870073146
27.4,-61.558909485956455,15.336768866291344,287.5976008194355,294.511622543922,0,8.65774556599126,223.5349525491609,11.02810059979514,19.586586693981186,0.023413762379008107,0.015375474463468536,2.9101962863541697,2.9034605964578795,0.11704115656883826,0.07643850035963703,-0.08847400163409092,5.993404647558529,245947173.60441247,0.0,257308984844.92773,0.6807258337380869,-0.20158091388640828,0.6742053221679997,0.2035304841999122,0.11704115656883826,0.07643850035963703,-0.08847400163409092
27.6,-61.55656957446974,15.338298362399913,288.1738574748772,295.0739683306228,0,8.626536653598883,223.37923482686017,11.027956535631281,19.605795249162572,0.011699557433573038,0.0076474805428449226,2.88128327720837,2.8926092782594446,-0.058571024727174514,-0.03863996960311752,-0.14456504572899725,0.1828520698687438,10296354288.3125,0.0,135489814037.0875,0.6793294799637694,-0.2013497014585184,0.676042010973424,0.2023288283308367,-0.058571024727174514,-0.03863996960311752,-0.14456504572899725
27.8,-61.554230749360926,15.339819133456258,288.75313209490827,295.63931516091066,0,8.595060011551368,223.2158053548394,11.027811716976272,19.625104403163608,0.011694125544075049,0.00760385528172594,2.8963731001553685,2.889128963846038,-2.7159447489946792e-05,-0.00021812630559491379,0.07544911473499365,0.2576619638144625,17924913048.0125,0.0,262104602112.91876,0.6795604103225612,-0.2005402169584101,0.6762955410454724,0.2015083404390944,-2.7159447489946792e-05,-0.00021812630559491379,0.07544911473499365
27.9,-61.55189224223761,15.34133127593082,289.0387099196172,295.9178394688541,0,8.579174033712953,223.13120773855115,11.027740322520096,19.63462366398724,0.02338507123319339,0.015121424745619162,2.8557782470892943,2.8772479536689666,0.1169094568911859,0.07517569463893382,-0.4059485306607511,0.2771054880998026,17924913048.0125,0.0,262104602112.91876,0.6814827115604118,-0.1991870030099853,0.6748696288672049,0.20113884684170155,0.1169094568911859,0.07517569463893382,-0.4059485306607511
28.0,-61.54955463468712,15.342834926479702,289.3288641913941,296.200847253332,0,8.56326494222575,223.0446931867965,11.02766778395215,19.64429547304647,0.02337607550487031,0.01503650548881886,2.9015427177688067,2.5826642233916415,-8.995728323080027e-05,-0.0008491925680029958,0.45764470679511743,1.6875284309485914,17924913048.0125,0.0,262104602112.91876,0.6816644233817363,-0.19839769161943416,0.675165874895379,0.20030729201025663,-8.995728323080027e-05,-0.0008491925680029958,0.45764470679511743
28.2,-61.54721901827545,15.34432995194537,289.89904265492737,296.75741534593726,0,8.531146354983381,222.8659287422218,11.027525239336267,19.663301421830912,0.011678082058352898,0.007475127328344682,2.850892317666488,3.1085888685098415,-0.05848996723258726,-0.037806890802371027,-0.25325200051159324,9.907745415776983,17924913048.0125,0.0,262104602112.91876,0.6802928361846362,-0.19811556697163432,0.6769922076228785,0.1990814656799392,-0.05848996723258726,-0.037806890802371027,-0.25325200051159324
28.4,-61.54488367454608,15.345816399357425,290.1807087571993,297.03217085411256,0,8.495889790185657,222.67954380099016,11.0274548228107,19.672690291906644,0.011676718646853643,0.007432237060269768,1.4083305113595708,3.0465363531717244,-6.8170574962778364e-06,-0.00021445134037457135,-7.212809031534613,12.802307411831464,17924913048.0125,0.0,262104602112.91876,0.6822257173769641,-0.19675736132634394,0.6755536007392572,0.19870063875490065,-6.8170574962778364e-06,-0.00021445134037457135,-7.212809031534613
28.5,-61.54255040501871,15.347293895933287,290.73330484748254,297.5716375729072,0,8.482289073159915,222.58350394593364,11.027316673788128,19.69111016158275,0.023332695273694193,0.014774965758625814,5.525960902832516,2.9352829089286994,0.11655976626840385,0.07342728698355942,41.17630391472886,13.112452364039166,17924913048.0125,0.0,262104602112.91876,0.6808227524818523,-0.19644730157204626,0.6774286840299624,0.19743154626738177,0.11655976626840385,0.07342728698355942,41.17630391472886
28.7,-61.54021820118845,15.34876246907896,291.2424276773347,298.06867437718046,0,8.448956378632584,222.3857508088605,11.027189393080667,19.708080922577825,0.011661019151283411,0.007342865728361429,2.5456141492608797,2.8082428733445233,-0.05835838061205412,-0.03716050015132206,-14.901733767858234,13.319304675728626,17924913048.0125,0.0,262104602112.91876,0.6812126282106967,-0.19554982824926823,0.6775349634631171,0.19661127415026153,-0.05835838061205412,-0.03716050015132206,-14.901733767858234
28.8,-61.537886334524345,15.350222766389702,291.47695240059505,298.2974263620747,0,8.432008223328172,222.28404631583962,11.027130761899851,19.715898413353166,0.02331866664107418,0.014602973107429099,2.3452472326033225,2.9332315725594595,0.11657647489790605,0.07260107379067567,-2.003669166575544,12.05952153464229,17924913048.0125,0.0,262104602112.91876,0.6835935525130675,-0.19409014887222148,0.6756208719673156,0.19638051439857027,0.11657647489790605,0.07260107379067567,-2.003669166575544
28.9,-61.53555568646841,15.351674325650798,291.69850797337904,298.51351405277916,0,8.414878653080097,222.1804625388317,11.027075373006655,19.723283599112634,0.023306480559313555,0.014515592610955561,2.215555727839889,2.0215702550985406,-0.00012186081760627143,-0.0008738049647353924,-1.2969150476343627,4.8898838207786,17924913048.0125,0.0,262104602112.91876,0.6840581063494509,-0.19319378925830294,0.6756331774818992,0.19560285380161063,-0.00012186081760627143,-0.0008738049647353924,-1.2969150476343627
29.1,-61.53322688843448,15.353116164838205,292.1051671540734,298.91049641219314,0,8.380107565583263,221.96767563099903,11.02697370821148,19.736838905135777,0.011643990169680598,0.007209195937036736,2.0332959034717812,2.2349781222277705,-0.05831245194816396,-0.0365319833695936,-0.9112991218405256,7.199497051225063,530902702489.1625,0.0,854421436673.7063,0.6824027164350389,-0.19284656241583747,0.6778219360259605,0.19414983648845285,-0.05831245194816396,-0.0365319833695936,-0.9112991218405256
29.3,-61.53089858180704,15.354549932119333,292.2986925033311,299.09921317693147,0,8.34302152353511,221.74742791358565,11.026925326874167,19.74328975011104,0.011641533137201107,0.0071688364056399475,0.9676267462884914,2.131257817548751,-1.22851623974522e-05,-0.0002017976569839446,-5.328345785916468,8.58370670547829,530902702489.1625,0.0,854421436673.7063,0.6851384235425685,-0.19131191381008836,0.675526360642316,0.19403409055440038,-1.22851623974522e-05,-0.0002017976569839446,-5.328345785916468
29.4,-61.52857209794012,15.355973935853665,292.659951284066,299.45186291877013,0,8.3270594822842,221.63451843546756,11.026835012178983,19.755331709468866,0.02326483866916412,0.01424003734332077,3.612587807348936,2.1008145101518516,0.1162330553196326,0.07071200937680973,26.44961061060501,8.7982483815553,530902702489.1625,0.0,854421436673.7063,0.6831731927090388,-0.1910347235192977,0.67803434939081,0.19248258160110263,0.1162330553196326,0.07071200937680973,26.44961061060501
29.6,-61.52624638815617,15.357388764593525,293.0253025614475,299.80853277635515,0,8.291445561402941,221.40315333108774,11.026743674359638,19.767510085381584,0.011628548919766337,0.007074143699297052,1.8267563869076493,1.8599066581651253,-0.058181448746988086,-0.03582946822011808,-8.929157102206307,9.850183321257676,530902702489.1625,0.0,854421436673.7063,0.6834011963833835,-0.19011984922222114,0.6783281041357576,0.19154172092019228,-0.058181448746988086,-0.03582946822011808,-8.929157102206307
29.7,-61.523921923744886,15.35879590708472,293.23163560289436,300.0097960049691,0,8.273820013931235,221.28470798768143,11.026692091099276,19.77438785342981,0.023244644112808074,0.014071424911961417,2.06333041446844,2.3852673163713902,0.11616095193041985,0.06997281212664513,2.365740275607959,14.316045891352342,530902702489.1625,0.0,854421436673.7063,0.6855463322209626,-0.18883467729077985,0.6765778086144988,0.19133781623420668,0.11616095193041985,0.06997281212664513,2.365740275607959
29.9,-61.52159892596211,15.360194312267286,293.39737397806874,300.1713873122225,0,8.235999163953377,221.04231803929207,11.026650656505483,19.779912465935624,0.011614988913883947,0.006992025912824243,0.8286918758719283,2.0541610317173906,-0.058148275994620836,-0.03539699499568599,-6.173192692982581,10.663421894543655,530902702489.1625,0.0,854421436673.7063,0.6868613728664694,-0.18769268268635006,0.6757164344863054,0.19078839455036195,-0.058148275994620836,-0.03539699499568599,-6.173192692982581
30.0,-61.51927679602874,15.361582399276097,293.7568164588709,300.52232337609615,0,8.219808180708444,220.91838420715567,11.026560795885281,19.791893881962363,0.023221299333684112,0.01388087008811192,3.5944248080215346,2.0218624386206323,0.116063104198,0.0688884417528758,27.65732932149567,9.46218999371904,530902702489.1625,0.0,854421436673.7063,0.6841646073226018,-0.18748034971450048,0.6790345549376222,0.1888967489363015,0.116063104198,0.0688884417528758,27.65732932149567
30.2,-61.516955765129495,15.362961657441621,294.1482390194317,300.9045412680401,0,8.184068900255577,220.6650663675043,11.02646294024514,19.804941300647723,0.011605154496230383,0.0068962908276226885,1.9571128028039266,1.9360586963717465,-0.05808072418726885,-0.034922896302446285,-8.186560026088069,9.049918819537119,530902702489.1625,0.0,854421436673.7063,0.6841957810351255,-0.1866572492715503,0.6794926818345421,0.18794919484109193,-0.05808072418726885,-0.034922896302446285,-8.186560026088069
30.3,-61.514636884411885,15.36433346629054,294.31474863610697,301.0669104345731,0,8.165869863734368,220.53569361851822,11.026421312840974,19.810491621203564,0.023188807176097396,0.013718088489191677,1.6650961667528226,2.0434679816625225,0.11583652679866849,0.06821797661568892,-2.9201663605109993,8.084029122691078,530902702489.1625,0.0,854421436673.7063,0.6875274446395852,-0.1851170037405523,0.6764926705679443,0.18813658459038046,0.11583652679866849,0.06821797661568892,-2.9201663605109993
30.4,-61.51231965498502,15.365696385546466,294.4781755874701,301.22627042154664,0,8.147617728507905,220.40451928982168,11.026380456103132,19.815939186249004,0.023172294268647912,0.013629192559250504,1.6342695136313872,1.444424357244562,-0.0001651290744948374,-0.0008889592994117487,-0.30826653121436054,4.086875079948688,530902702489.1625,0.0,854421436673.7063,0.6878561405603876,-0.18423481450498455,0.6766341611513236,0.18729034940628153,-0.0001651290744948374,-0.0008889592994117487,-0.30826653121436054
30.6,-61.51000316791855,15.36704904513056,294.7513322543057,301.4929096210405,0,8.110517626063595,220.13678929290208,11.026312166936423,19.825044408476856,0.011582435332364418,0.00676329792047338,1.3657833341778576,1.1653779879040653,-0.05794929468141665,-0.03432947319388513,-1.3424308972676289,2.487133252362317,530902702489.1625,0.0,854421436673.7063,0.6859037045751494,-0.18378280814304884,0.6792009513908819,0.185596484640368,-0.05794929468141665,-0.03432947319388513,-1.3424308972676289
30.7,-61.50768942424144,15.36839398516225,294.81120331960204,301.5510387890313,0,8.091175055477708,220.00024552374597,11.026297199170099,19.827040110653403,0.023137436771066215,0.013449400316894186,0.5987106529636449,0.8436360065395669,0.11555001438702044,0.06686102396420948,-7.6707268121422905,2.4092507710341016,530902702489.1625,0.0,854421436673.7063,0.6978201339635896,-0.17986246216048948,0.6673243151949692,0.18808193344968055,0.11555001438702044,0.06686102396420948,-7.6707268121422905
30.91,-61.50537657494096,15.369729695959853,294.92917786854395,301.6659740454124,0,8.050433925457158,219.70772426727808,11.026267705532863,19.83097259561813,0.011013568097526048,0.00636052760763371,0.561783566390007,0.5644625268624418,-0.057732707969238656,-0.033756536710764035,-0.1758432693982748,2.712807583987935,530902702489.1625,0.0,854421436673.7063,0.690687279675075,-0.18097208016504265,0.675227693965485,0.18511550231635224,-0.057732707969238656,-0.033756536710764035,-0.1758432693982748
31.11,-61.503066700961455,15.371057008041221,294.9401807885052,301.6763279588299,0,8.010577571516478,219.42189622015724,11.026264954802873,19.83133935961684,0.011549369897530012,0.006636560406843041,0.055014599806213677,0.34172471237352126,0.0026790090000198335,0.0013801639960466575,-2.5338448329189758,2.4742121914714192,9.15772312988601,0.0,0.26950929456370565,0.7593431892144318,-0.15942567216074383,0.5974288630353563,0.20263299253091044,0.0026790090000198335,0.0013801639960466575,-2.5338448329189758
31.21,-61.500757193203306,15.372375302124444,294.9638944690409,301.69910854709235,0,7.990821341109457,219.27635088452203,11.02625902638274,19.832129815634694,0.023095077581487215,0.013182940832230185,0.23713680535706436,0.2814943072623227,0.11545707683957038,0.06546380425387051,1.8212220555084808,0.9899633528520939,8.309811518615259,0.0,0.2770815501242409,0.7205381345491733,-0.17093024932835654,0.6442528288467431,0.19116992192265128,0.11545707683957038,0.06546380425387051,1.8212220555084808
31.3,-61.498451262521755,15.373685059128427,294.9864334018795,301.720741068869,0,7.973049121891111,219.1438674006834,11.02625339164953,19.832881113395985,0.025621452017235157,0.014552855599801916,0.25043258709539906,0.23309461279506846,0.028070827063866072,0.015221275195241487,0.14773090820371917,1.0018591186209738,8.309811518615259,0.0,0.2770815501242409,0.7224936812695018,-0.16972570400115386,0.642468714227684,0.19086649042087703,0.028070827063866072,0.015221275195241487,0.14773090820371917
31.5,-61.49614502972579,15.374985930173587,295.04600588091466,301.77858047275464,0,7.933645564074849,218.8444214991993,11.026238498529771,19.834866862697154,0.011531163979832157,0.006504355225800419,0.2978623951759129,0.39873354830365026,-0.07045144018701525,-0.04024250187000763,0.23714904040257,1.0611068431155246,8.309811518615259,0.0,0.2770815501242409,0.698940210431129,-0.1755563138557859,0.668564390544642,0.18353260910129657,-0.07045144018701525,-0.04024250187000763,0.23714904040257
31.6,-61.49384306557706,15.37627775658246,295.077889702197,301.8093498282042,0,7.913966283155863,218.6921055835275,11.02623052757445,19.8359296567399,0.023019641487280425,0.012918264088739122,0.3188382128234889,0.373227424826938,0.11488477507448104,0.06413908862938612,0.20975817647575704,1.6909092556613126,8.309811518615259,0.0,0.2770815501242409,0.7117804489420866,-0.17130312288116234,0.6552871570387336,0.18607142288663525,0.11488477507448104,0.06413908862938612,0.20975817647575704
31.8,-61.49154152078865,15.377560659880348,295.2548298639261,301.98194252045454,0,7.87575248962879,218.38232166987942,11.026186292534017,19.841827662130868,0.011507723942045842,0.00641451648943916,0.8847008086453942,0.357205839008553,-0.05755958772617312,-0.03251873799649993,2.829312979109537,2.222003187451565,8.309811518615259,0.0,0.2770815501242409,0.6894499623455498,-0.17652695561457357,0.6792592930271671,0.17917532251792778,-0.05755958772617312,-0.03251873799649993,2.829312979109537
32.0,-61.489241956024195,15.37883549179593,295.23276746644075,301.9599682794123,0,7.835579387809247,218.06571433346755,11.02619180813339,19.84109224888136,0.011497823822281858,0.00637415957791101,-0.11031198742671261,0.31037942747451674,-4.950059881991837e-05,-0.00020178455764075024,-4.975063980360552,2.628855422159207,8.309811518615259,0.0,0.2770815501242409,0.7239525541461014,0.1662574230326819,-0.6427981495611295,0.1872477170826276,-4.950059881991837e-05,-0.00020178455764075024,-4.975063980360552
32.1,-61.48694718189646,15.38010000426191,295.24977201221134,301.97619115280133,0,7.815789707880017,217.90486942364905,11.026187556996947,19.84165906707371,0.022947741277334573,0.012645124659797877,0.17004545770589388,0.25763658075882045,0.11449917455052552,0.06270965081886778,2.8035744513260252,2.68799779056106,8.309811518615259,0.0,0.2770815501242409,0.7351009154599241,-0.16221886296965626,0.6305094252813743,0.18912839347428695,0.11449917455052552,0.06270965081886778,2.8035744513260252
32.2,-61.484654348966465,15.381355359415597,295.24392750582984,301.970073918215,0,7.795785208116568,217.74233985920674,11.026189018123542,19.841464250194328,0.022928329299957924,0.012553551536864481,-0.058445063814928366,0.13769231580855243,-0.00019411977376648516,-0.0009157312293339411,-2.28490521520819,2.4794294019998944,8.309811518615259,0.0,0.2770815501242409,0.8129477176186576,0.13481572282425425,-0.5269571038471378,0.20798302816101666,-0.00019411977376648516,-0.0009157312293339411,-2.28490521520819
32.41,-61.48236288774224,15.382602329599578,295.25544075400126,301.98092770161855,0,7.754066994823455,217.39557644805382,11.0261861398115,19.841848025133373,0.010911720115355723,0.005937953257053668,0.05482499129243642,0.25084475019699537,-0.057221948498107425,-0.031502848951481005,0.5393812147969913,2.268017110133775,8.309811518615259,0.0,0.2770815501242409,0.7572087219527524,-0.15391146825147914,0.6048285805526882,0.19268782910701382,-0.057221948498107425,-0.031502848951481005,0.5393812147969913
32.6,-61.48007564867775,15.383839227362259,295.20133846553375,301.92762782326344,0,7.715751672871702,217.07552064172225,11.026199665383617,19.84004461551779,0.012038100339438971,0.006509988224634863,-0.2847488866710687,0.221670649958544,0.005928316968859051,0.003010710355690427,-1.7872309366499812,3.051250425464607,8.309811518615259,0.0,0.2770815501242409,0.7017570271370637,0.1692654780817728,-0.6688392159361168,0.17759610361564698,0.005928316968859051,0.003010710355690427,-1.7872309366499812
32.7,-61.47778979217179,15.385067545458543,295.1337027513293,301.8610962691595,0,7.6952274989805325,216.90467764296184,11.026216574312167,19.837790091710975,0.022858565059564413,0.012283180962846354,-0.6763571420446982,0.24479988262665558,0.10820464720125288,0.05773192738211409,-3.91608255373624,2.769875468807056,8.309811518615259,0.0,0.2770815501242409,0.6987467147851409,0.16923031634860847,-0.6724520222840478,0.1758476793466927,0.10820464720125288,0.05773192738211409,-3.91608255373624
32.8,-61.475508468566865,15.386285726850355,295.13329482437376,301.8602949111192,0,7.675401213701284,216.732194442381,11.026216676293906,19.837776494145793,0.022813236049260742,0.012181813918115817,-0.004079269555177466,0.2667048785347548,-0.0004532901030367389,-0.0010136704473054253,6.72277872489559,3.0056576559099457,8.309811518615259,0.0,0.2770815501242409,0.9671151428356415,0.018971310266416606,-0.0758041467320477,0.24203743764756372,-0.0004532901030367389,-0.0010136704473054253,6.72277872489559
33.0,-61.47322943814812,15.387496554707303,295.0974534997271,301.8248499540751,0,7.635483146710776,216.38233817188154,11.026225636625067,19.836581783324235,0.011395152093740374,0.006054139284738994,-0.17920662323319647,0.2396635348772776,-0.05709041977760103,-0.030638373166883684,-0.8756367683900826,2.6917152881409807,8.309811518615259,0.0,0.2770815501242409,0.7103416783445281,0.1646995326202357,-0.6610333565465094,0.17698493013307737,-0.05709041977760103,-0.030638373166883684,-0.8756367683900826
33.2,-61.47095417114209,15.38869667240724,295.1305014945133,301.8567592491328,0,7.596380165263412,216.02601402597276,11.026217374626372,19.837683383150445,0.011376335030135304,0.006000588499688235,0.1652399739307929,0.1617711534192606,-9.408531802534847e-05,-0.0002677539252537916,1.7222329858199226,2.048159542602556,8.309811518615259,0.0,0.2770815501242409,0.7125206139106065,-0.16320000654004804,0.6592149271665332,0.1763967471882719,-9.408531802534847e-05,-0.0002677539252537916,1.7222329858199226
33.3,-61.468681657715805,15.389890193536845,295.14526712790916,301.8707939713804,0,7.576863344193286,215.8454462506239,11.026213683218023,19.838175570930304,0.022725134262843352,0.011935211296042037,0.14765633395882943,0.22132019823150434,0.11348799232708694,0.0593462279635414,-0.17583639971964465,0.7717194356388626,8.309811518615259,0.0,0.2770815501242409,0.7430055351879487,-0.15413791137656266,0.6249844144080563,0.18324508370911347,0.11348799232708694,0.0593462279635414,-0.17583639971964465
33.5,-61.466412217975524,15.391071921892221,295.20268872113536,301.9265346968406,0,7.538222943864554,215.4795394208042,11.026199327819716,19.840089624037844,0.011347198701407829,0.005908641776883799,0.28710796613097095,0.341634907923637,-0.05688967780717681,-0.030132847595790765,0.6972581608606977,3.0490873889179992,8.309811518615259,0.0,0.2770815501242409,0.7019537273938025,-0.16432461845981997,0.6713715378090485,0.17180990246751035,-0.05688967780717681,-0.030132847595790765,0.6972581608606977
33.61,-61.46414576196565,15.392247261479456,295.23822909744433,301.9608822523237,0,7.517079859648817,215.27559793865814,11.026190442725639,19.841274303248145,0.020604145544276562,0.010684905338497353,0.32309433008157035,0.4600195427681356,0.084154062207898,0.04342057783285072,0.32714876318726893,4.2430086503206095,8.309811518615259,0.0,0.2770815501242409,0.7111594486336574,-0.16141850523439422,0.661905042725683,0.1734301565509236,0.084154062207898,0.04342057783285072,0.32714876318726893
33.7,-61.461882409667766,15.393409876515232,295.1679631821102,301.89177952710435,0,7.498826588273335,215.10732521075317,11.026208009204472,19.83893210607034,0.025148358865419905,0.012917944841954746,-0.7807323926012898,0.5405255607061,0.050491259123813005,0.024811550038414537,-12.264741363142427,5.509315034310233,-174623341515517.94,0.0,-231652476902.97675,0.699622999871382,0.1631647289382516,-0.6747465990136843,0.16918024825889544,0.050491259123813005,0.024811550038414537,-12.264741363142427
33.9,-61.45962235099928,15.394566801427333,295.31947450241734,302.03951709489104,0,7.4614737364549,214.72886979090566,11.026170131374395,19.84398248341391,0.011300293342415798,0.0057846245605032275,0.7575566015356278,0.7258592807378128,-0.06924032761502201,-0.03566660140725835,7.691444970684752,6.692595839323286,-87410938020045.9,0.0,-343816812303.4743,0.6931485588417888,-0.16432410223404814,0.6816303771884828,0.1671008488740014,-0.06924032761502201,-0.03566660140725835,7.691444970684752
34.1,-61.457365455812514,15.39571041085528,295.20902328764936,301.9311231030549,0,7.421697941132948,214.3442404412284,11.026197744178088,19.840300776254978,0.01128447593384136,0.005718047139735479,-0.5522560738398773,0.7851521305364887,-7.908704287218757e-05,-0.0003328871038387389,-6.549063376877432,8.458586560722647,-87410938020045.9,0.0,-343816812303.4743,0.6955836264827966,0.1624113455538972,-0.6798323871416108,0.16617430245905357,-7.908704287218757e-05,-0.0003328871038387389,-6.549063376877432
34.2,-61.45511298389363,15.396847949650828,295.08764336907757,301.81204599512546,0,7.401227093044527,214.14963186814148,11.02622808915773,19.836254778969252,0.02252471918886524,0.011375387955485488,-1.2137991857178858,1.138156850779389,0.11240243255023721,0.05657340815749929,-6.615431118779991,12.338477380272879,-87410938020045.9,0.0,-343816812303.4743,0.6949759780440163,0.1621264553522132,-0.6806780149394674,0.16553199809932748,0.11240243255023721,0.05657340815749929,-6.615431118779991
34.4,-61.45286373496137,15.397976442878564,295.2116960799496,301.93293566976706,0,7.364120335968361,213.75587017127594,11.026197075980011,19.840389869331652,0.011246244661293998,0.005642466138677925,0.6202635543601919,1.0639647368914134,-0.05639237263785742,-0.02866460908403843,9.170313700390585,16.131343352949045,-87410938020045.9,0.0,-343816812303.4743,0.6950216496265778,-0.16127225515865326,0.6810657852823399,0.16457691935427196,-0.05639237263785742,-0.02866460908403843,9.170313700390585
34.5,-61.450617508666106,15.399091175816428,294.95708165547705,301.6835932230211,0,7.342487791137911,213.5567345479524,11.02626072958613,19.831902721849236,0.02246226295262911,0.011147329378644441,-2.5461442447254607,1.198117639414256,0.11216018291334955,0.055048632399664385,-31.66407799085608,16.515380540002944,-87410938020045.9,0.0,-343816812303.4743,0.6918146098384728,0.16063426390316254,-0.6850346871614498,0.16222409272344718,0.11216018291334955,0.055048632399664385,-31.66407799085608
34.61,-61.44837404458865,15.400196493956273,294.9995453328247,301.72470974606875,0,7.321987578074132,213.33596313235807,11.026250113666794,19.833318177760823,0.020395127976901222,0.010048346725856035,0.3860334304332292,1.0002600757911604,-0.018792136142980906,-0.009990751388985567,26.656160683260957,18.085130661411423,-87410938020045.9,0.0,-343816812303.4743,0.7086206625833363,-0.15565131037066676,0.6681132004342486,0.1650883931272979,-0.018792136142980906,-0.009990751388985567,26.656160683260957
34.8,-61.44613781223922,15.401295053004414,294.76715725109733,301.49710568302896,0,7.283701196069506,212.95041498136132,11.026308210687226,19.82557190836991,0.01176964394434192,0.005781889727062294,-1.2230951669862193,0.9703554094933173,-0.045397284381891605,-0.022455036835756798,-8.469097881155093,16.94523616759935,-1957012691246.9316,0.0,87914370123.88193,0.6924391517713543,0.15918279582041267,-0.6850551093443686,0.1608985884653417,-0.045397284381891605,-0.022455036835756798,-8.469097881155093
34.9,-61.443901701056326,15.402380608882135,294.78949675132793,301.5185463277029,0,7.265092411759639,212.74536750193124,11.026302625812168,19.8263165583776,0.022361111828956517,0.010855558777205078,0.2233950023060029,0.48690306611272244,0.10591467884614447,0.050736690501427116,14.464901692922018,10.95466212361825,-3914025382654.096,0.0,175828740247.92035,0.7262342651122434,-0.1494161762071451,0.6499090380093028,0.16696359117585352,0.10591467884614447,0.050736690501427116,14.464901692922018
35.1,-61.441672010405675,15.403460347726249,294.69535577646496,301.4261076388963,0,7.226693358820713,212.33091568811068,11.026326161055884,19.823178525882167,0.011148453253255594,0.005398694220568524,-0.4707048743148267,0.4319154560088406,-0.05606329287850382,-0.02728432278318238,-3.470499383104099,6.098925648720191,-3914025382654.096,0.0,175828740247.92035,0.6982131663756411,0.15600183450269842,-0.680081039640451,0.16016111092602076,-0.05606329287850382,-0.02728432278318238,-3.470499383104099
35.3,-61.43944657957909,15.404529455889605,294.6696729713604,301.4005993570862,0,7.189266982055608,211.91071624109645,11.02633258175716,19.822322432378677,0.011127154132921884,0.005345540816783625,-0.12841402552283218,0.2185029468692211,-0.00010649560166855565,-0.00026576701892450056,1.7114542439600093,4.93143052407158,-3914025382654.096,0.0,175828740247.92035,0.721686123560715,0.14931722811649115,-0.6556366601881886,0.1643595882958877,-0.00010649560166855565,-0.00026576701892450056,1.7114542439600093
35.4,-61.437221517793425,15.405585139941628,294.6805746827561,301.4108580271948,0,7.170903910944101,211.69848445965792,11.02632985632931,19.822685822758537,0.022250617856655847,0.010556840520230388,0.10901711395717784,0.1887088038049894,0.11123463723733805,0.05211299703446689,2.3743113948000665,2.1186560463971444,-3914025382654.096,0.0,175828740247.92035,0.7620549200194996,-0.1371672747521266,0.609103457224466,0.17161123508777532,0.11123463723733805,0.05211299703446689,2.3743113948000665
35.5,-61.43500038418947,15.406631076668816,294.66515865927164,301.3953869604372,0,7.152355252020797,211.48484386190574,11.026333710335182,19.822171955309056,0.02221133603953231,0.010459367271877646,-0.15416023484476463,0.10185276362334905,-0.00039281817123537063,-0.0009747324835274046,-2.631773488019387,1.4647565412571482,-3914025382654.096,0.0,175828740247.92035,0.7423390227388025,0.14168987712792785,-0.6334724872996924,0.16604024172776105,-0.00039281817123537063,-0.0009747324835274046,-2.631773488019387
35.7,-61.43278664783087,15.407669363075254,294.6501965513905,301.3803608039064,0,7.115656751971413,211.05337426006213,11.026337450862153,19.821673218379683,0.011068681792991539,0.0051914320321876746,-0.07481053940580189,0.17229467602825396,-0.05571327123270306,-0.026339676198449482,0.39674847719480805,1.9339557356374073,-3914025382654.096,0.0,175828740247.92035,0.74375169225549,0.14086523880660207,-0.6320727195440725,0.1657542819091385,-0.05571327123270306,-0.026339676198449482,0.39674847719480805
35.9,-61.43057640770307,15.408696976383144,294.6432969114474,301.37321724921077,0,7.079371203609039,210.61638414013626,11.026339175772138,19.82144323038158,0.011051200639009787,0.0051380665394519225,-0.034498199715358904,0.20538588583284323,-8.740576990876407e-05,-0.0002668274636787659,0.20156169845221922,1.9136944377787515,-3914025382654.096,0.0,175828740247.92035,0.7971714681678059,0.12466509644113158,-0.5638350802487536,0.17625625194412095,-8.740576990876407e-05,-0.0002668274636787659,0.20156169845221922
