time,position_x,position_y,position_z,ground_station_distance,comm_range_status,wind_speed,wind_angle,battery_voltage,battery_current,velocity_x,velocity_y,velocity_z,velocity_total,acceleration_x,acceleration_y,acceleration_z,acceleration_total,angular_x,angular_y,angular_z,orientation_w,orientation_x,orientation_y,orientation_z,linear_acceleration_x,linear_acceleration_y,linear_acceleration_z
0.0,-103.83976528978177,26.266705523817453,269.3324017,289.84923543111523,0,7.693324017,180.0,11.032666899575,18.977746723333333,-0.01085759626370475,-0.01083539898791841,0.012359152323995204,0.03357616913208832,-0.10897811990915335,-0.10793126542285597,0.2606566705736669,0.25734475782536304,2012734146494502.5,0.0,-6957566354689.6,0.3604443002662191,0.3073911567219267,0.12714137373669965,-0.871450316575246,-0.10897811990915335,-0.10793126542285597,0.2606566705736669
0.2,-103.84193680903451,26.26453844401987,269.3348735304648,289.8521138780954,0,7.733346068691314,180.59998222238025,11.032666281617383,18.97782911768216,-0.01085759626370475,-0.01083539898791841,0.012359152323995204,0.03357616913208832,-0.10897811990915335,-0.10793126542285597,0.2606566705736669,0.25734475782536304,2012734146494502.5,0.0,-6957566354689.6,0.3604443002662191,0.3073911567219267,0.12714137373669965,-0.871450316575246,-0.10897811990915335,-0.10793126542285597,0.2606566705736669
0.3,-103.84411234985997,26.26237559146685,269.3387160124029,289.8562678029362,0,7.753378160529021,180.89994000119998,11.032665320996898,18.97795720041343,-0.021755408254620082,-0.021628525530204005,0.03842481938136189,0.03357616913208832,-0.10897811990915335,-0.10793126542285597,0.2606566705736669,0.25734475782536304,2012734146494502.5,0.0,-6957566354689.6,0.3436135582257915,0.40087064741115874,0.16535969691716934,-0.8329997702778981,-0.10897811990915335,-0.10793126542285597,0.2606566705736669
0.5,-103.84629213428371,26.26021705385371,269.3430996973098,289.8609265567015,0,7.793389335514455,181.4997222376539,11.032664225075672,18.97810332324366,-0.010898922118727228,-0.010792688065688338,0.0219184245344195,0.03357616913208832,0.05428243067946427,0.05417918732257833,-0.08253197423471195,0.25734475782536304,2012734146494502.5,0.0,-6957566354689.6,0.33741248656741046,0.42714425493899005,0.1757047700283308,-0.820261198137705,0.05428243067946427,0.05417918732257833,-0.08253197423471195
0.6,-103.84847586424033,26.258062868780605,269.3474454367244,289.8655518826543,0,7.813402467326133,181.79952003839853,11.03266313864082,18.978248181224146,-0.02183729956612979,-0.021541850731061633,0.043457394145889346,0.0412069210916176,-0.10938377447402564,-0.10749162665373296,0.2153896961146985,0.25734475782536304,2012734146494502.5,0.0,-6957566354689.6,0.336981998713712,0.425649170052305,0.1746138570499282,-0.8214474526729285,-0.10938377447402564,-0.10749162665373296,0.2153896961146985
0.81,-103.85066374157459,26.25591313375148,269.35001968225174,289.8685330229587,0,7.855323107926513,182.42881919217493,11.032662495079437,18.97833398940839,-0.010418463496499776,-0.010236833472023116,0.012258312034960212,0.034470809566757084,0.054375409855380995,0.053833415519231015,-0.14856705767109105,0.24926014463952967,2012734146494502.5,0.0,-6957566354689.6,0.35577822671800285,0.31659917335663396,0.12951185023167455,-0.8697203559034694,0.054375409855380995,0.053833415519231015,-0.14856705767109105
0.9,-103.85285547804244,26.253767816173035,269.35422728558433,289.87303370976565,0,7.873299371251866,182.698380291575,11.032661443178604,18.978474242852812,-0.024352627420556584,-0.023836861982731414,0.04675114813987119,0.03567857661165435,-0.15482404360063126,-0.15111142789675894,0.383253734499011,0.2679872001661363,2012734146494502.5,0.0,-6957566354689.6,0.336695774985487,0.41971943429275493,0.17122790793450485,-0.8253196684486955,-0.15482404360063126,-0.15111142789675894,0.383253734499011
1.1,-103.85505125531205,26.25162703335367,269.3537903985242,289.8732205554592,0,7.913094505659592,183.29704301743396,11.032661552400368,18.97845967995081,-0.010978886348027569,-0.01070391409681903,-0.0021844353005917574,0.030509508967505795,0.06686870536264505,0.0656647394295619,-0.24467791720231466,0.23399176299006533,2074770065831553.2,0.0,-3440788090477.2773,0.3758751147529437,-0.06548541467373312,-0.026639769205294154,-0.9239696322234617,0.06686870536264505,0.0656647394295619,-0.24467791720231466
1.2,-103.85725090496493,26.249490802502464,269.35495257300516,289.87489509878804,0,7.93297394030789,183.59616122861277,11.032661261856749,18.97849841910017,-0.021996496528800008,-0.021362308512067357,0.01162174480953128,0.03310021820764878,-0.11017610180772454,-0.10658394415248341,0.13806180110123056,0.2412643477905322,2074770065831553.2,0.0,-3440788090477.2773,0.3697664159580924,0.1669424392496115,0.06772385361525117,-0.9114913599472004,-0.11017610180772454,-0.10658394415248341,0.13806180110123056
1.4,-103.85945428849698,26.247359140728097,269.359482061114,289.879700364131,0,7.972681049899613,184.19390487759242,11.032660129484722,18.978649402037135,-0.0110169176602426,-0.010658308871835944,0.022647440544290024,0.025123517808135525,0.05489789434278706,0.053519998201157076,0.05512847867379373,0.16857428292151613,2074770065831553.2,0.0,-3440788090477.2773,0.3312715940738575,0.43454985983119576,0.17579961886732884,-0.8188528831765541,0.05489789434278706,0.053519998201157076,0.05512847867379373
1.5,-103.86166159731954,26.245232155037833,269.3604082151129,289.8811592263978,0,7.992480347098327,184.49250374910727,11.032659897946221,18.978680273837096,-0.022073088225624794,-0.021269856902641476,0.009261539988756331,0.031733545792620055,-0.11056170565382185,-0.10611548030805522,-0.1338590055553368,0.1804599537622739,2074770065831553.2,0.0,-3440788090477.2773,0.37008863005490406,0.13556779097815438,0.05468807414036494,-0.9174230182964702,-0.11056170565382185,-0.10611548030805522,-0.1338590055553368
1.7,-103.8638726227605,26.243109852336488,269.3622850874611,289.88350328788545,0,8.031987549008603,185.08908923171782,11.032659428728135,18.978742836248703,-0.0110551272047843,-0.010611513506724181,0.00938436174095614,0.02874137166999833,0.055089805104202486,0.053291716979586484,0.0006141087609990403,0.17157364605739522,2074770065831553.2,0.0,-3440788090477.2773,0.3592095756634312,0.2516991624341417,0.10125146650696668,-0.8929524919679871,0.055089805104202486,0.053291716979586484,0.0006141087609990403
1.8,-103.86608721606531,26.240992269425384,269.3660495308367,289.8876030269464,0,8.051719642160014,185.38704932800138,11.03265848761729,18.978868317694555,-0.02214593304813659,-0.02117582911104419,0.03764443375587231,0.0330317054347692,-0.11090805843352282,-0.1056431560432,0.28260072014916143,0.2180339811085202,2074770065831553.2,0.0,-3440788090477.2773,0.33624911494191234,0.39850702540369587,0.15986437461143863,-0.8381957200646949,-0.11090805843352282,-0.1056431560432,0.28260072014916143
2.0,-103.86830553839816,26.238879493001317,269.3678748981585,289.88990275553965,0,8.091017410571707,185.98223801800413,11.03265803127546,18.97892916327195,-0.011091611664255653,-0.010563882120333547,0.009126836609141266,0.030166046797449407,0.055271606919404706,0.053059734953553234,-0.14258798573365525,0.21024274984372515,2074770065831553.2,0.0,-3440788090477.2773,0.3580751500491264,0.2464731798482722,0.09859226209111083,-0.8951607254502035,0.055271606919404706,0.053059734953553234,-0.14258798573365525
2.1,-103.87052736084293,26.23677153965555,269.3716740426079,289.894038247703,0,8.110636540118279,186.27944015899064,11.032657081489347,18.979055801420262,-0.022218224447669833,-0.021079533457672977,0.03799144449374122,0.03636638128719741,-0.1112661278341417,-0.10515651337339421,0.2886460788459993,0.2611189261127106,2074770065831553.2,0.0,-3440788090477.2773,0.3342366360988125,0.40079376221555263,0.15987423120392028,-0.8379083848819084,-0.1112661278341417,-0.10515651337339421,0.2886460788459993
2.3,-103.87275282440436,26.234668465872744,269.37344801765045,289.8962937082016,0,8.149689527246881,186.87299398884537,11.032656637995586,18.979114933921682,-0.011127317807151387,-0.010515368914028059,0.008869875212838009,0.029938228700758924,0.055454533202592304,0.052820822718224664,-0.14560784640451624,0.2298237765431604,2074770065831553.2,0.0,-3440788090477.2773,0.3569222431724867,0.24116903102477977,0.0959250057361921,-0.89735299858963,0.055454533202592304,0.052820822718224664,-0.14560784640451624
2.4,-103.87498169000911,26.232570308029974,269.3772704770579,289.9004543213678,0,8.169177957624848,187.16931929764107,11.032655682380735,18.979242349235264,-0.022288656047493284,-0.02098157842770119,0.038224594074449635,0.033412563943999864,-0.11161338240341888,-0.10466209513673123,0.293547188616116,0.2407562894716107,2074770065831553.2,0.0,-3440788090477.2773,0.3323414608306786,0.402464724637962,0.15963060028020157,-0.8379077337566484,-0.11161338240341888,-0.10466209513673123,0.293547188616116
2.61,-103.87721405850678,26.230477122395676,269.37884927492956,289.9025318401179,0,8.209882119087215,187.79054958741378,11.032655287681267,18.97929497583099,-0.010630326179393383,-0.009967550639512438,0.007518085103204917,0.029415012340722625,0.055515856514761444,0.052447751372327406,-0.14622147129164154,0.19955125553508765,2074770065831553.2,0.0,-3440788090477.2773,0.35739603520176316,0.21936966211583567,0.08675946597420557,-0.9036690879017135,0.055515856514761444,0.052447751372327406,-0.14622147129164154
2.7,-103.87944982067114,26.228388965128648,269.37967286571427,289.90390931477737,0,8.227259602034804,188.0563308041621,11.03265508178357,18.97932242885714,-0.024841801826230157,-0.023201747411426353,0.009151008718946358,0.03322630416491591,-0.1579052849648525,-0.147046630799043,0.018143595730460396,0.19825090199205203,2.004366421504547,0.0,0.07923167970980671,0.3636985898262293,0.12196869291248588,0.04809991485792173,-0.922243661891093,-0.1579052849648525,-0.147046630799043,0.018143595730460396
2.9,-103.88168887720104,26.226305862277016,269.38455660423193,289.909061155425,0,8.26575001625199,188.64590342175129,11.032653860848942,18.979485220141065,-0.011195282649509879,-0.010415514258159689,0.024418692588312783,0.02720337162521922,0.06823259588360148,0.06393116576633341,0.07633841934683222,0.1492731032454445,9.022179755434266,0.0,-0.07738772977644999,0.32016217910176953,0.4507878954143742,0.17726808575703865,-0.8141636679395124,0.06823259588360148,0.06393116576633341,0.07633841934683222
3.0,-103.8839312787216,26.22422787977723,269.3865960456952,289.911571750593,0,8.28490637377963,188.94011988577776,11.032653350988577,18.979553201523174,-0.022424015205615412,-0.020779824997845236,0.020394414632960416,0.03517632637285047,-0.11228732556105524,-0.10364310739685538,-0.04024277955352363,0.20110531235862336,27.37338012699821,0.0,-0.07718623802369962,0.34936482552271375,0.26991923495897113,0.10583609087773191,-0.8910031128758014,-0.11228732556105524,-0.10364310739685538,-0.04024277955352363
3.21,-103.88617691578536,26.222155063453055,269.38911404573116,289.91452867473475,0,8.324922417642766,189.55666554280648,11.032652721488567,18.979637134857704,-0.010693509827387431,-0.009870553924649191,0.011990476361591262,0.03353092213530312,0.05585954942013325,0.05194890987236213,-0.040018753673186455,0.18714100196813915,14.295187837490047,0.0,0.07990954666169614,0.3427264620618576,0.314614146607835,0.12300558198374746,-0.876599188773082,0.05585954942013325,0.05194890987236213,-0.040018753673186455
3.3,-103.88842568887313,26.22008742901453,269.39315236040255,289.9188998936992,0,8.342017580393762,189.82033303863912,11.0326517119099,18.979771745346753,-0.024986367641904296,-0.02297371598361215,0.04487016301545238,0.03843120854355773,-0.15880953127240985,-0.1455906895440331,0.36532985170956855,0.21567845466748317,9182717269304.346,0.0,-1770875891930.399,0.3252142183876847,0.414949464205299,0.16176945657297032,-0.8341961982856962,-0.15880953127240985,-0.1455906895440331,0.36532985170956855
3.5,-103.89067765839538,26.218025032057003,269.39759994622955,289.92365304971395,0,8.379771614373198,190.40498125354344,11.032650600013442,18.97991999820765,-0.011259847611242425,-0.010311984787634279,0.02223792913497389,0.03663767885579631,0.0686326001533093,0.0633086559798893,-0.11316116940239235,0.209628310739642,9182717269304.346,0.0,-1770875891930.399,0.3205986921994646,0.4341738923523749,0.16877142943438808,-0.8247579732056276,0.0686326001533093,0.0633086559798893,-0.11316116940239235
3.6,-103.89293266469313,26.2159679380601,269.4019709602113,289.92833664518963,0,8.398568176152292,190.69661818922106,11.032649507259947,18.980065698673712,-0.02255006297758653,-0.020570939969033458,0.04371013981767642,0.0437701734194373,-0.11290215366344093,-0.1025895518139917,0.21472210682702514,0.2458807103936628,9182717269304.346,0.0,-1770875891930.399,0.32045748999730816,0.43106656520206893,0.16707915159113704,-0.8267848393464295,-0.11290215366344093,-0.1025895518139917,0.21472210682702514
3.8,-103.89519077803915,26.21391618238672,269.4066148598472,289.9332754249922,0,8.435907087424438,191.2784529096354,11.032648346285038,18.98022049532824,-0.011290566730082234,-0.010258778366907265,0.023219498179400975,0.038168977182538165,0.05629748123752155,0.05156080801063103,-0.10245320819137738,0.18614887070615632,9182717269304.346,0.0,-1770875891930.399,0.3172481013888869,0.4428968484648292,0.1711606287554738,-0.8209141629604764,0.05629748123752155,0.05156080801063103,-0.10245320819137738
3.9,-103.89745183863897,26.21186981028205,269.4111340031583,289.9380998461244,0,8.454488170277905,191.56862483514698,11.03264721649921,18.98037113343861,-0.022610605998210055,-0.02046372104668846,0.04519143311085823,0.04302185472827104,-0.11320039268127811,-0.10204942679781186,0.21971934931457235,0.2101474987220901,9182717269304.346,0.0,-1770875891930.399,0.31749273866602346,0.4379863863498461,0.16877068964748665,-0.8239434086042945,-0.11320039268127811,-0.10204942679781186,0.21971934931457235
4.11,-103.89971590663207,26.209828866872556,269.4162250487086,289.94345727090655,0,8.493214749186563,192.17629692654444,11.032645943737823,18.980540834956955,-0.010781276157599332,-0.009718778140446069,0.024243074049189996,0.03966699772651612,0.05633014209814619,0.051166394791630335,-0.09975409076984854,0.1768205623120408,9182717269304.346,0.0,-1770875891930.399,0.3120039536110411,0.460300854960183,0.17684537180746568,-0.8120975128174468,0.05633014209814619,0.051166394791630335,-0.09975409076984854
4.2,-103.90198285209289,26.207793397164988,269.41968685562665,289.9473023511842,0,8.509717774675407,192.43600418538512,11.032645078286093,18.98065622852089,-0.025188282897974902,-0.022616330084090953,0.03846452131155179,0.04383218920064619,-0.1600778526708399,-0.1433061327071656,0.1580160806929091,0.1830972700645995,9182717269304.346,0.0,-1770875891930.399,0.3259626372384256,0.3846527895337665,0.14734780429670624,-0.8509284430534697,-0.1600778526708399,-0.1433061327071656,0.1580160806929091
4.4,-103.90425261503201,26.205763466045394,269.4263298836264,289.95410496298786,0,8.546142228968263,193.01151495687571,11.032643417529092,18.980877662787545,-0.011348814695608656,-0.010149655597970755,0.03321513999878786,0.03974845813554128,0.06919734101183117,0.062333372430600935,-0.026246906563819627,0.14653701759440407,9182717269304.346,0.0,-1770875891930.399,0.3002935606879784,0.5045037760029853,0.19268867958137526,-0.7862383799899691,0.06919734101183117,0.062333372430600935,-0.026246906563819627
4.5,-103.90652518539719,26.20373904827812,269.4301199930287,289.9582581608458,0,8.564232268152749,193.2984092997603,11.032642470001742,18.981003999767623,-0.022725703651787024,-0.02024417767273697,0.03790109402302746,0.04533833771275925,-0.11376888956178408,-0.1009452207476625,0.04685954024239612,0.16667595447034914,9182717269304.346,0.0,-1770875891930.399,0.32089721090051027,0.404056782313343,0.15386947665198167,-0.842666767386555,-0.11376888956178408,-0.1009452207476625,0.04685954024239612
4.7,-103.90880050307454,26.201720258504842,269.43622404478214,289.9645629969337,0,8.600134811205958,193.87041214631236,11.032640943988804,18.981207468159404,-0.01137658838679555,-0.010093948866387583,0.030520258767126024,0.04252881075854576,0.05674557632495732,0.05075114403174688,-0.036904176279507137,0.13355720708837873,9182717269304.346,0.0,-1770875891930.399,0.3018167130203788,0.49203034733459083,0.18681263144623853,-0.79493009112469,0.05674557632495732,0.05075114403174688,-0.036904176279507137
4.8,-103.91107849788955,26.199707131243557,269.4409515004844,289.9695901880814,0,8.61796786608781,194.1554952277253,11.032639762124878,18.981365050016148,-0.02277994815003134,-0.020131272612857815,0.04727455702266087,0.04646118969142133,-0.11403359763235829,-0.10037323746470267,0.16754298255534902,0.15461672988639097,9182717269304.346,0.0,-1770875891930.399,0.31074824059990375,0.44809308933000264,0.16962387345207414,-0.820899418816869,-0.11403359763235829,-0.10037323746470267,0.16754298255534902
5.0,-103.91335915960825,26.197699690887617,269.44774102240336,289.9765349524058,0,8.65332848743244,194.72376135582684,11.032638064744399,18.981591367413447,-0.011403308593500572,-0.010037201779695684,0.033947609594804334,0.04502273290006946,0.056883197782653785,0.05047035416581061,-0.06663473713928261,0.140320063314274,9182717269304.346,0.0,-1770875891930.399,0.2963175764031912,0.5088136493668916,0.1920326044842769,-0.7851293160667676,0.056883197782653785,0.05047035416581061,-0.06663473713928261
5.1,-103.91564238793829,26.195698001704752,269.45247017349755,289.98156667156275,0,8.67087919550079,195.00691914633666,11.032636882456625,18.981749005783254,-0.02283228330043138,-0.020016891828653696,0.04729151094181833,0.04945930822197708,-0.11428974706930847,-0.09979690048958048,0.1334390134701404,0.1585233158935863,9182717269304.346,0.0,-1770875891930.399,0.3090609865772065,0.44871848104324463,0.16884456058516684,-0.8213553102689292,-0.11428974706930847,-0.09979690048958048,0.1334390134701404
5.3,-103.91792820253008,26.193702077836075,269.4601775174376,289.98936721572676,0,8.70566845758407,195.57122125711322,11.03263495562064,18.982005917247918,-0.011429072958932796,-0.009979619343383197,0.03853671970034608,0.04703073973535695,0.05701605170749287,0.05018636242635245,-0.04377395620736121,0.1293988424227615,9182717269304.346,0.0,-1770875891930.399,0.29031827247512465,0.5270073574572193,0.1977047087837916,-0.7738807362751279,0.05701605170749287,0.05018636242635245,-0.04377395620736121
5.4,-103.92021648297786,26.191712013295135,269.46491891862695,289.9944132218388,0,8.722921172492494,195.85234049737906,11.032633770270342,18.982163963954232,-0.022882804477859387,-0.019900645409407395,0.047414011893351676,0.058016093467121374,-0.1145373151892653,-0.09921026066024145,0.08877292193005552,0.21611929226302334,9182717269304.346,0.0,-1770875891930.399,0.30727853440594843,0.44977274323259425,0.16822008558707724,-0.8215755501129739,-0.1145373151892653,-0.09921026066024145,0.08877292193005552
5.61,-103.92250722882082,26.18972779196692,269.4736617422226,290.0031788158596,0,8.758802992017447,196.44038273173368,11.032631584564443,18.98245539140742,-0.010908313537884495,-0.009448672991498241,0.04163249331256902,0.05424831702998336,0.05702138542845188,0.04977129722813883,-0.027531040860869802,0.23052288320470762,-394090412213.45905,0.0,896358677612.7002,0.28464509195527515,0.5433192661357684,0.20259195375718822,-0.7633726789349409,0.05702138542845188,0.04977129722813883,-0.027531040860869802
5.7,-103.92480034954427,26.187749517606917,269.4813794541554,290.0109932830203,0,8.774077892009492,196.69142112358423,11.03262965513646,18.982712648471846,-0.02547911914945193,-0.021980826222250366,0.08575235480887197,0.0653646898384793,-0.16189784012852731,-0.13924614700835716,0.4902206832922558,0.3328672316257102,-394090412213.45905,0.0,896358677612.7002,0.28789283712854213,0.5280362620864555,0.19629272218555277,-0.7744446961977519,-0.16189784012852731,-0.13924614700835716,0.4902206832922558
5.9,-103.92709583458067,26.185777193840124,269.48821142115156,290.0179861160801,0,8.807604160037084,197.24711973558604,11.032627947144713,18.982940380705053,-0.011477425181993784,-0.009861618833966182,0.034159834980869136,0.06740440248570562,0.07000846983729067,0.060596036941420864,-0.25796259914001396,0.32906320713927606,-394090412213.45905,0.0,896358677612.7002,0.291265969386398,0.5114335292235732,0.1895391849983798,-0.7859228827394404,0.07000846983729067,0.060596036941420864,-0.25796259914001396
6.0,-103.92939358331078,26.183810864160094,269.4974277107527,290.0271958707962,0,8.824259223897597,197.52382540388928,11.032625643072311,18.983247590358424,-0.022977487301147986,-0.019663296800303057,0.09216289601113237,0.06983160782173746,-0.11500062119154243,-0.0980167796633691,0.5800306103026344,0.35893284267592696,-394090412213.45905,0.0,896358677612.7002,0.28067982488650906,0.5502505994832932,0.203302120840387,-0.7596784591731924,-0.11500062119154243,-0.0980167796633691,0.5800306103026344
6.2,-103.9316935650648,26.181850591927983,269.5103759913361,290.03987483570586,0,8.85717408098797,198.07488797572614,11.032622406002165,18.983679199711204,-0.011499908770105084,-0.00980136116055518,0.06474140291714997,0.06622302753698588,0.05738789265521446,0.04930967819873934,-0.13710746546991187,0.2813105168219036,-394090412213.45905,0.0,896358677612.7002,0.2707528343746475,0.5832693269225709,0.214837853423189,-0.735074480366379,0.05738789265521446,0.04930967819873934,-0.13710746546991187
6.3,-103.93399575912349,26.179896410371587,269.51511563213575,290.04492756247055,0,8.873440672205897,198.34922038768065,11.032621221091965,18.98383718773786,-0.02302194058685822,-0.019541815563961576,0.04739640799641637,0.0699539687607264,-0.11522031816753177,-0.0974045440340643,-0.17344994920733664,0.28540740775613227,-394090412213.45905,0.0,896358677612.7002,0.302202295771312,0.4514953818698094,0.16578585439837856,-0.8230071342717407,-0.11522031816753177,-0.0974045440340643,-0.17344994920733664
6.5,-103.93630008471919,26.1779483425844,269.5296202032623,290.05905540362403,0,8.905669013504703,198.89542650167127,11.032617594949183,18.984320673442078,-0.011521627978510186,-0.009740338935930728,0.07252285563282605,0.06646581004750098,0.05750156304174012,0.049007383140154195,0.1256322381820483,0.19992386187599703,-394090412213.45905,0.0,896358677612.7002,0.26667490972997937,0.5925496184734557,0.21690714208073844,-0.7285058228194444,0.05750156304174012,0.049007383140154195,0.1256322381820483
6.6,-103.9386065110371,26.17600646152463,269.5343411757234,290.0640934530871,0,8.921577115704102,199.16727592796997,11.03261641470607,18.98447803919078,-0.023064263179009087,-0.0194188105977134,0.0472097246108662,0.06436412462550407,-0.11542635200498942,-0.09678471661782707,-0.25313131021959945,0.23738515903012586,-394090412213.45905,0.0,896358677612.7002,0.30063712354093525,0.4513820482352423,0.16471572948744753,-0.8238569626697392,-0.11542635200498942,-0.09678471661782707,-0.25313131021959945
6.8,-103.94091493721625,26.1740708100143,269.5499648214441,290.0792638504087,0,8.953085696251378,199.70840710895135,11.032612508794639,18.98499882738147,-0.011542130895776371,-0.00967825755164852,0.0781182286036141,0.07065123772862109,0.05761066141616353,0.048702765230324366,0.15454251996373938,0.2333505532841575,-394090412213.45905,0.0,896358677612.7002,0.2636234074997189,0.5982999811005437,0.21764726307294827,-0.7246857943344694,0.05761066141616353,0.048702765230324366,0.15454251996373938
6.9,-103.94322539235071,26.172141420738274,269.5546838132865,290.0843026728489,0,8.9686212025768,199.9776648134484,11.032611329046677,18.98515612710955,-0.023104551344630287,-0.019293892760252514,0.04718991842366879,0.08994339532039261,-0.11562420448853855,-0.09615635208603943,-0.30928310179945145,0.36983830529985146,-394090412213.45905,0.0,896358677612.7002,0.29892838531851346,0.451941612842537,0.16388705392126346,-0.8243370867485956,-0.11562420448853855,-0.09615635208603943,-0.30928310179945145
7.1,-103.94553778549073,26.17021832624332,269.57195072507045,290.1010027050543,0,8.999387049293778,200.51350461616315,11.032607012318731,18.985731690835685,-0.011561965700082097,-0.00961547247477771,0.08633455891981642,0.08631063035019634,0.057712928222741156,0.04839210142737419,0.19572320248073885,0.44489251424977566,-394090412213.45905,0.0,896358677612.7002,0.2601944663845446,0.6052535075140137,0.21879108713402812,-0.7197898939937653,0.057712928222741156,0.04839210142737419,0.19572320248073885
7.2,-103.94785201564373,26.16830158893717,269.5887375315929,290.1172579330534,0,9.014656719258877,200.78006289936673,11.032602815617102,18.986291251053096,-0.02314230153004347,-0.019167373061499304,0.16786806522475128,0.10755336757636977,-0.11580335829961313,-0.09551900586721543,0.8153350630493442,0.7091751168816472,-394090412213.45905,0.0,896358677612.7002,0.2599778690051426,0.6037880261842855,0.21757292828587607,-0.7214662486500243,-0.11580335829961313,-0.09551900586721543,0.8153350630493442
7.4,-103.95016815177563,26.166391241087588,269.5956872086481,290.12437341744885,0,9.04453269534277,201.31039699503822,11.032601078197837,18.98652290695494,-0.011580680659477583,-0.009551739247903859,0.034748385275804566,0.11705307569818961,0.05780810435282939,0.04807816906797718,-0.665598399744733,0.7188375182937143,-394090412213.45905,0.0,896358677612.7002,0.28248458927733316,0.516943502418482,0.18568212084088936,-0.7864439090794453,0.05780810435282939,0.04807816906797718,-0.665598399744733
7.5,-103.95248601281178,26.16448731482145,269.6140205330471,290.1420683263384,0,9.05941772537714,201.57414923718915,11.032596494866738,18.987134017768238,-0.023178610361469593,-0.019039262661380073,0.18333324399009207,0.1119763168827693,-0.1159792970199205,-0.09487523413476248,1.4858485871428804,0.7954773329324402,56361151710185.25,0.0,10410202.617963556,0.25688754875662456,0.609609586053613,0.21827305015881293,-0.7174550964762351,-0.1159792970199205,-0.09487523413476248,1.4858485871428804
7.71,-103.95480561763819,26.16258987212379,269.63554188263794,290.1627270449492,0,9.09006102104583,202.1248939586155,11.03259111452934,18.987851396087933,-0.011045737268624463,-0.009035441417434446,0.1024826170992453,0.10097838239560715,0.05777558615640539,0.04763724401878871,-0.3850029851945085,0.6942772907775752,3367078385508.9844,0.0,-914544957057.5403,0.2535451421104213,0.618335726997252,0.22068578062663544,-0.710403811828314,0.05777558615640539,0.04763724401878871,-0.3850029851945085
7.8,-103.95712693510265,26.16069894483689,269.6402773363248,290.16778865320936,0,9.10296161176407,202.35960620296817,11.03258993066592,18.98800924454416,-0.025792416271820547,-0.02101030318774933,0.052616152076249596,0.10353784462667057,-0.1638519889244012,-0.13305401967016559,-0.554071833588842,0.6927780693176393,-7.455642597840317,0.0,-0.12279119173576306,0.29357712847880385,0.45458394909180794,0.16171807417912673,-0.8252352194047651,-0.1638519889244012,-0.13305401967016559,-0.554071833588842
8.0,-103.95944985401586,26.15881455465936,269.6631922740874,290.18974492615365,0,9.13134410453992,202.87829479190856,11.032584201931478,18.988773075802914,-0.011614594566040626,-0.00942195088764918,0.11457468881303602,0.09196544848349493,0.07088910852889954,0.057941761500500705,0.30979268368393187,0.48354070501456087,-7.455642597840317,0.0,-0.12279119173576306,0.2511542134104854,0.6218217075991528,0.22050116626351604,-0.7082644708871563,0.07088910852889954,0.057941761500500705,0.30979268368393187
8.11,-103.96177439315248,26.15693678314521,269.667894577001,290.194778110225,0,9.146631566859252,203.16184574156526,11.03258302635575,18.988929819233366,-0.021132173969301164,-0.017070650128658913,0.04274820830532526,0.08139505023645185,-0.0865234491205508,-0.06953362946372521,-0.6529680046155557,0.5595724530705286,-7.455642597840317,0.0,-0.12279119173576306,0.2920720099505722,0.45396322728990973,0.16045107099580713,-0.826357539499859,-0.0865234491205508,-0.06953362946372521,-0.6529680046155557
8.3,-103.9641004112524,26.155065651702934,269.6920132272551,290.2178554674674,0,9.172782874492476,203.64867307169013,11.032576996693185,18.989733774241838,-0.012242200525903137,-0.009848060222501209,0.12694026449516405,0.09579258274510499,0.046789333912620884,0.03801363108504029,0.4431160852096748,0.5370854846154896,-7.455642597840317,0.0,-0.12279119173576306,0.24896999455688223,0.6246269177067729,0.22005429162683596,-0.7067045098363911,0.046789333912620884,0.03801363108504029,0.4431160852096748
8.41,-103.96642795702174,26.1532012015946,269.69671540817285,290.2228908566495,0,9.187587574809584,203.92879124602558,11.032575821147956,18.98989051360576,-0.02115950699393673,-0.016949546439384174,0.04274709925249993,0.11982766427977279,-0.08106642243666945,-0.06455896560802729,-0.7653924112969506,0.6754735499507307,-7.455642597840317,0.0,-0.12279119173576306,0.2903021880910961,0.4546634413173673,0.15964868160567916,-0.8267515304978512,-0.08106642243666945,-0.06455896560802729,-0.7653924112969506
8.6,-103.96875684913405,26.151343463934943,269.72204610423046,290.24709700594025,0,9.212905586832859,204.40959219755445,11.032569488473943,18.990734870141015,-0.012257326906930526,-0.009777566629783758,0.13331945293478084,0.11729059058768357,0.04685357940529593,0.037747262155791765,0.47669659832779554,0.7424659524077374,-7.455642597840317,0.0,-0.12279119173576306,0.24685219902957017,0.6272231550837766,0.2195218214731741,-0.7053121829786566,0.04685357940529593,0.037747262155791765,0.47669659832779554
8.7,-103.97108713623145,26.149492489690456,269.74542970107586,290.2694950599809,0,9.226112171061768,204.6610771556343,11.03256364257473,18.991514323369195,-0.02330287097393588,-0.01850974244486998,0.23383596845406002,0.13269019278457544,-0.11045544067005393,-0.08732175815086253,1.0051651551927954,0.9342985267507876,684080903859.1942,0.0,-462503317808.6995,0.24716111547765945,0.624085477374342,0.21769923558287807,-0.708544806453981,-0.11045544067005393,-0.08732175815086253,1.0051651551927954
8.9,-103.97341880692566,26.147648319678485,269.7524163855476,290.2766567895045,0,9.251667658909124,205.16074781199663,11.032561895903612,18.991747212851585,-0.01165835347109117,-0.009220850059854464,0.034933422358562706,0.15330365353555492,0.05822258751422324,0.046444461925077334,-0.9945127304774813,0.8367980255206084,12.791595835772515,0.0,-0.042908611754344864,0.2739119719485563,0.5209879506688672,0.1811277724622355,-0.787868337302608,0.05822258751422324,0.046444461925077334,-0.9945127304774813
9.02,-103.97575168979935,26.145811004566315,269.77682524569383,290.30001001066285,0,9.266905376620768,205.45840883930293,11.032555793688577,18.992560841523126,-0.01944069061406626,-0.015310959268077894,0.2034071678854364,0.13745984302478562,-0.06485280952479285,-0.05075091006852891,1.4039478793906233,0.9552025454907987,4.922829319449702,0.0,0.08263206101058244,0.24509331990005861,0.6264913444040746,0.21708295283813026,-0.707327966020163,-0.06485280952479285,-0.05075091006852891,1.4039478793906233
9.2,-103.97808578340701,26.14398056487031,269.8043293707909,290.3262409603722,0,9.289246533780641,205.90183946278617,11.032548917657302,18.99347764569303,-0.012967186709210607,-0.010169109422244733,0.15280069498386561,0.11893120494681138,0.03596391058253146,0.02856583247685094,-0.28114707167539366,0.8492981149828227,443450513332.37366,0.0,-470872081756.85077,0.2428790670593536,0.6315240973448222,0.21809374723061814,-0.7032938153262069,0.03596391058253146,0.02856583247685094,-0.28114707167539366
9.3,-103.98042109627626,26.142157060954986,269.8089653513622,290.33122141983137,0,9.301329535281177,206.14658222417873,11.03254775866216,18.99363217837874,-0.023353128692491176,-0.01823503915325349,0.046359805712653974,0.12238494516707694,-0.10385941983280421,-0.08065929731008643,-1.0644088927121014,0.8434136664701342,476103208467.8084,0.0,1033149296.8067383,0.2854329041651473,0.4542038432442911,0.15632449916648913,-0.8293308006834857,-0.10385941983280421,-0.08065929731008643,-1.0644088927121014
9.5,-103.98275748690892,26.140340523032133,269.83742767919597,290.3583452111661,0,9.325205286370707,206.63257072314389,11.0325406430802,18.994580922639866,-0.011681953163318368,-0.009082689614263761,0.1423116391688955,0.10987288391700423,0.05835587764586425,0.04576174769494881,0.4797591672812094,0.6582103563346846,476103208467.47833,0.0,1033149296.9344501,0.24099531025778978,0.6333228157447354,0.21723615418440656,-0.7025894425666247,0.05835587764586425,0.04576174769494881,0.4797591672812094
9.6,-103.9850949937822,26.138530991159932,269.84209334736454,290.3633553417675,0,9.336804070075642,206.87379486130766,11.032539476663159,18.99473644491215,-0.02337506873274728,-0.018095318722011266,0.04665668168570408,0.0891431816803058,-0.11693115569428952,-0.09012629107747537,-0.9565495748319176,0.7831565934479974,396181743618.45593,0.0,-473270758145.77216,0.28339154313835707,0.45616324261923663,0.15593276548481994,-0.8290291321835562,-0.11693115569428952,-0.09012629107747537,-0.9565495748319176
9.8,-103.98743348534974,26.136728495242053,269.87040915024176,290.39034528410707,0,9.359698832486359,207.35264931030852,11.032532397712439,18.995680305008058,-0.011692457837710828,-0.00901247958939417,0.14157901438608103,0.10634748753780318,0.05841305447518194,0.045414195663085244,0.4746116635018822,0.6674177052131992,396181743626.4304,0.0,-473270758145.89954,0.23955368507015387,0.6336747220547172,0.2158737013119166,-0.7031848431814212,0.05841305447518194,0.045414195663085244,0.4746116635018822
9.91,-103.98977298004287,26.13493309502681,269.87505668352196,290.39534058289667,0,9.371899067548618,207.61395197282562,11.032531235829119,18.995835222784066,-0.021268133573926318,-0.016321820138578295,0.042250302547328054,0.1281827011868594,-0.08705159760195945,-0.06644855044712876,-0.9029882894432135,0.7928028898367612,-47268769712.759155,0.0,-2398676389.1347837,0.28170192390518406,0.45620733936955227,0.1548781406964877,-0.8297780734075052,-0.08705159760195945,-0.06644855044712876,-0.9029882894432135
10.11,-103.99211334627161,26.133144820106246,269.90311064423724,290.4220894350976,0,9.393757670112091,208.08523338561238,11.03252422233894,18.996770354807907,-0.011701831143682326,-0.008941374602819994,0.14026980357641655,0.12503407339959657,0.047831512151220126,0.03690222767879164,0.4900975051454442,0.8251767515594708,-187210225307.68414,0.0,-952783823575.3848,0.23814814325205885,0.6338782231519878,0.21445398312747288,-0.7039128846668721,0.047831512151220126,0.03690222767879164,0.4900975051454442
10.21,-103.99445451242595,26.131363709915284,269.92816403077563,290.44605088673904,0,9.404543563826579,208.31900697273568,11.032517958992306,18.997605467692523,-0.02341166154337737,-0.017811101909614737,0.25053386538388267,0.1464829816230326,-0.11709830399694879,-0.08869727306794617,1.1026406180746455,1.1530655696426053,-187210225316.05692,0.0,-952783823575.384,0.2387163402156008,0.6297695984923484,0.2123271240800305,-0.708040926859994,-0.11709830399694879,-0.08869727306794617,1.1026406180746455
10.4,-103.99679657687683,26.129589803730855,269.93506794289914,290.4531460785046,0,9.42415913391567,208.75970075385504,11.032516233014276,18.997835598096636,-0.012326655004663336,-0.00933634833909925,0.0363363795973951,0.16249325954048213,0.058342139677442444,0.044603966160607945,-1.1273551883499375,1.0906494629269858,50830971779758.99,0.0,2697831766.716016,0.2656473746162325,0.5228361715341715,0.17565266354242742,-0.7907085125919944,0.058342139677442444,0.044603966160607945,-1.1273551883499375
10.5,-103.99913934797749,26.12782314067102,269.959853981761,290.4768611938719,0,9.434444991005645,208.9897959256961,11.03251003650456,18.998661799392032,-0.02342771100657623,-0.017666630598363105,0.24786038861862014,0.14512735837949614,-0.11101056001912933,-0.08330282259263884,2.1152400902122577,1.1616802629365421,50830971779758.99,0.0,2697831766.716016,0.23731180224379456,0.6298816815145193,0.21087541726357956,-0.7088467635548286,-0.11101056001912933,-0.08330282259263884,2.1152400902122577
10.7,-104.0014828340643,26.12606376969412,269.9857063499236,290.50156845196113,0,9.4542580720486,209.4461108084199,11.03250357341252,18.999523544997455,-0.011717430434075068,-0.008796854884494141,0.1292618408129447,0.12041657119846452,0.05855140286250601,0.044348878569344975,-0.5929927390283793,1.0227345871000568,50830971779758.99,0.0,2697831766.716016,0.23603299949223874,0.6318642467088392,0.21078975028431987,-0.7075335172674452,0.05855140286250601,0.044348878569344975,-0.5929927390283793
10.8,-104.00382701345832,26.12431170959791,269.99026965137546,290.5064911532409,0,9.46381831028365,209.6723102387163,11.032502432587156,18.99967565504585,-0.023441793940150668,-0.01752060096208627,0.045633014518670544,0.1231962737537177,-0.11724363506075433,-0.08723746077592004,-0.8362882629427296,0.9656499494301091,50830971779758.99,0.0,2697831766.716016,0.2767838209097663,0.45517352615567136,0.1513047298444811,-0.8326551845129481,-0.11724363506075433,-0.08723746077592004,-0.8362882629427296
11.0,-104.00617176446599,26.12256700901871,270.0158433915489,290.53094147558494,0,9.48257315403836,210.120742811271,11.032496039152113,19.00052811305163,-0.011723755038346481,-0.008723502896010902,0.1278687008672823,0.09638106931627052,0.05859019450902114,0.04398549033037699,0.41117843174306024,0.6099105679780948,50830971779758.99,0.0,2697831766.716016,0.23461667776565187,0.6319877680250146,0.20933114019237106,-0.7083268661618946,0.05859019450902114,0.04398549033037699,0.41117843174306024
11.1,-104.00851709538061,26.120829706430538,270.02031377733726,290.5357795958083,0,9.491600509133468,210.34295602326654,11.032494921555665,19.000677125911242,-0.023453309146219764,-0.01737302588171736,0.04470385788351921,0.08031166036977407,-0.11729554107873325,-0.08649522985706488,-0.8316484298376339,0.6421730038951516,50830971779758.99,0.0,2697831766.716016,0.2756091894991328,0.45209659742702824,0.14920674216249216,-0.835096155752013,-0.11729554107873325,-0.08649522985706488,-0.8316484298376339
11.31,-104.01086290448332,26.119099860144278,270.0443962171112,290.55884586070266,0,9.51012075599029,210.80520245661052,11.032488900945722,19.00147987390371,-0.011170519536698302,-0.008237363267903912,0.11467828463791839,0.09722849269237024,0.05848947433105434,0.04350315530387338,0.33321155597332813,0.5761532649688254,50830971779758.99,0.0,2697831766.716016,0.23378182729550961,0.630075519757285,0.20719363806262245,-0.710930160406305,0.05848947433105434,0.04350315530387338,0.33321155597332813
11.41,-104.01320919004424,26.11737747830684,270.0484300207368,290.56327993919166,0,9.518585572674432,211.0232032194721,11.032487892494816,19.00161433402456,-0.023462855609182126,-0.017223818374390083,0.04033803625588931,0.11798158803133856,-0.12292336072483867,-0.08986455106486203,-0.7434024838202934,0.6800393135692563,50830971779758.99,0.0,2697831766.716016,0.2771888617378267,0.4328088382481058,0.14180650204608444,-0.8460104966489878,-0.12292336072483867,-0.08986455106486203,-0.7434024838202934
11.6,-104.01555579032367,26.115662598900286,270.0746404995911,290.5883258500467,0,9.534352622539444,211.43359810560466,11.032481339875101,19.00248801665304,-0.012350527786515263,-0.009025681087119408,0.1379498887068194,0.11399155806716466,0.058485935908773115,0.04314809098563525,0.5137465918470019,0.702382736335996,50830971779758.99,0.0,2697831766.716016,0.231217981920145,0.6340712931159912,0.206995853418123,-0.7082687037775234,0.058485935908773115,0.04314809098563525,0.5137465918470019
11.7,-104.01790275357325,26.113955269741034,270.0977052665796,290.61044912967935,0,9.542478248138067,211.64757386401845,11.032475573683355,19.003256842219322,-0.023469632495789566,-0.0170732915925243,0.23064766988511648,0.14002049219452262,-0.11119104709274343,-0.08047610505404922,0.9269778117829741,1.10944868515118,50830971779758.99,0.0,2697831766.716016,0.23196176304653662,0.629058134647786,0.2046028245618455,-0.7131740936819739,-0.11119104709274343,-0.08047610505404922,0.9269778117829741
11.91,-104.02025007803698,26.112255528478993,270.10410133615255,290.61708118018885,0,9.558521339111604,212.09233335092716,11.032473974665962,19.003470044538417,-0.011177735541558613,-0.00809400600971679,0.030457474156805893,0.15575297524222545,0.058532842639194775,0.04275850277527369,-0.9532866463252847,1.0749822473789858,50830971779758.99,0.0,2697831766.716016,0.25907895284660903,0.5154976505407782,0.16704284809055334,-0.7995229548803704,0.058532842639194775,0.04275850277527369,-0.9532866463252847
12.0,-104.02259756195251,26.110563412596747,270.12602052432106,290.6381414913829,0,9.565338377177664,212.28102409047852,11.032468494868919,19.004200684144035,-0.026083154616982424,-0.01880128758051414,0.2435465352056734,0.13293668758700544,-0.16561576750470927,-0.11896979523108185,2.3676562338763096,1.0787325489132642,-114961635176832.9,0.0,-496283277147.2303,0.23102500232089132,0.6273272576954925,0.20252964474178803,-0.7155904576331704,-0.16561576750470927,-0.11896979523108185,2.3676562338763096
12.2,-104.02494526355213,26.108878959408727,270.1515384486735,290.6625475079085,0,9.57971409712487,212.696166348446,11.032462115387832,19.00505128162245,-0.011738507998089218,-0.008422265940097902,0.12758962176207023,0.13901673453854163,0.0717232330944663,0.051895108202081375,-0.579784567218018,1.3746055346428878,-114961635176832.9,0.0,-496283277147.2303,0.22836170133685174,0.6341466746876198,0.20396289430033684,-0.7100056803250254,0.0717232330944663,0.051895108202081375,-0.579784567218018
12.4,-104.02729314106406,26.107202206060386,270.1555518283917,290.6669673509321,0,9.593123517182995,213.10549604073105,11.032461112042903,19.00518506094639,-0.011739387559686003,-0.008383766741708553,0.020066898591153296,0.14238686127112543,-4.397807983926004e-06,0.00019249599194674506,-0.5376136158545818,1.623461869749113,-114961635176832.9,0.0,-496283277147.2303,0.271529453791748,0.43447304931589087,0.13921302423289983,-0.8474223616506922,-4.397807983926004e-06,0.00019249599194674506,-0.5376136158545818
12.5,-104.0296410227135,26.105533189527378,270.18168018426684,290.6919424091724,0,9.599786040553841,213.30795839382168,11.032454579953933,19.00605600614223,-0.023478816494417826,-0.01669016533007556,0.26128355875130277,0.11891010532147876,-0.11739428934731864,-0.08306398588367037,2.4121666016015033,1.2355908660254227,-114961635176832.9,0.0,-496283277147.2303,0.22650386640798442,0.6356389179882964,0.20290422430984806,-0.7095696161745657,-0.11739428934731864,-0.08306398588367037,2.4121666016015033
12.6,-104.03198900672379,26.103871946614753,270.1858053387151,290.6964675977856,0,9.606038736568184,213.50894039868865,11.032453548665321,19.006193511290505,-0.023479840102851396,-0.016612429126254883,0.04125154448274785,0.10329829442630793,-1.0236084335701925e-05,0.0007773620382067775,-2.200320142685557,1.2928248182619588,-114961635176832.9,0.0,-496283277147.2303,0.26865705255101,0.4408780967918114,0.1401941422664514,-0.8448641869306616,-1.0236084335701925e-05,0.0007773620382067775,-2.200320142685557
12.8,-104.03433691131755,26.102218493956133,270.2112993157935,290.72085467818283,0,9.618144713736385,213.90642769994,11.03244717517105,19.00704331052645,-0.011739522968809916,-0.008267263293095751,0.12746988539191695,0.1243826866110552,0.058701585670207085,0.04172582916579544,0.4310917045458432,1.2744286390966184,-114961635176832.9,0.0,-496283277147.2303,0.22517227271831888,0.6352468877865013,0.20123250963196154,-0.7108194680955592,0.058701585670207085,0.04172582916579544,0.4310917045458432
12.9,-104.03668480471782,26.1005729080129,270.2154377412153,290.72539360186494,0,9.623824505824299,214.10291533028746,11.032446140564696,19.00718125804051,-0.02347893400269649,-0.01645585943233391,0.04138425421786011,0.11994648475526974,-0.11739411033886614,-0.0818859613923819,-0.8608563117405715,1.0122602723101637,-114961635176832.9,0.0,-496283277147.2303,0.26657263264828635,0.44245103651517037,0.13961360824346838,-0.8447982908380275,-0.11739411033886614,-0.0818859613923819,-0.8608563117405715
13.1,-104.03903252514928,26.098935205073413,270.2413070423655,290.7501311084378,0,9.634782973649124,214.491334887058,11.032439673239407,19.00804356807885,-0.011738602157294095,-0.008188514697433676,0.12934650575118714,0.11681237539107747,0.058701659227012176,0.04133672367450132,0.43981125766663676,0.7801302234515616,-114961635176832.9,0.0,-496283277147.2303,0.22338961718198955,0.6363927829190216,0.20003450643091933,-0.7106950830143725,0.058701659227012176,0.04133672367450132,0.43981125766663676
13.2,-104.04138005083922,26.09730541125219,270.265205348316,290.7730374958771,0,9.64008225371969,214.6832495504536,11.03243369866292,19.0088401782772,-0.023475256899416846,-0.01629793821223308,0.23898305950467688,0.13571082809381968,-0.11736654742122793,-0.08109423514799433,1.0963655375349013,1.038302544695029,-114961635176832.9,0.0,-496283277147.2303,0.2234729442256261,0.6334764349394753,0.1983416847903302,-0.713742268364454,-0.11736654742122793,-0.08109423514799433,1.0963655375349013
13.4,-104.04372744001886,26.095683582489123,270.2715137898406,290.77959537681164,0,9.649684221289045,215.06244600009956,11.032432121552539,19.009050459661353,-0.011736945898164146,-0.00810914381533574,0.03154220762297638,0.15346816079971998,0.05869155500626319,0.040943971984486474,-1.037204259408497,0.9518201268930598,-114961635176832.9,0.0,-496283277147.2303,0.25015985221796627,0.5175910943634899,0.16141428391980644,-0.8021626620084896,0.05869155500626319,0.040943971984486474,-1.037204259408497
13.51,-104.04607444092437,26.094069754548674,270.2958521994301,290.8029122948011,0,9.654842275225526,215.26835139763472,11.032426036950142,19.009861739981005,-0.021336371868327233,-0.014671163094994595,0.2212582689956198,0.1374010349700484,-0.08726750881966487,-0.05965472072417171,1.7246914670240399,1.0593497559902094,35414356763579.8,0.0,506289578261.35,0.22161858974376716,0.6348196905607345,0.1971951872985797,-0.7134446154135828,-0.08726750881966487,-0.05965472072417171,1.7246914670240399
13.7,-104.04842116179807,26.09246394301909,270.32213401130696,290.82803640176724,0,9.663037462910298,215.61953260223407,11.032419466497172,19.010737800376898,-0.012351162493174422,-0.008451639629382777,0.13832532566766567,0.1159378683294553,0.04729057565869913,0.03273433402953597,-0.436489175410286,0.9310216312844168,-178583479601.69672,0.0,-513100484346.05,0.219950533003322,0.6381500292842093,0.19743676849360234,-0.7109184380805726,0.04729057565869913,0.03273433402953597,-0.436489175410286
13.8,-104.05076754088958,26.090866193311626,270.32622576143996,290.83253576412415,0,9.666969318359119,215.80207290163648,11.03241844355964,19.010874192047996,-0.023463790915058902,-0.015977497074643795,0.04091750132999947,0.11891700891444519,-0.11112628421884321,-0.07525857445260911,-0.9740782433766482,0.9091980009986391,-365495444184.8749,0.0,814632978.7095703,0.2609108323547743,0.4431103907512945,0.1365413198055246,-0.8467202531851588,-0.11112628421884321,-0.07525857445260911,-0.9740782433766482
14.0,-104.05311341645691,26.089276550659743,270.35274878755854,290.8578854691473,0,9.674426947852506,216.16237186624852,11.03241181280311,19.011758292918618,-0.011729377836644558,-0.007948213259414444,0.13261513059291066,0.10136322143682834,0.058672065392071926,0.0401464190761469,0.4584881463145576,0.6583001905748493,-365495444188.35095,0.0,814632978.8926728,0.21820485059250994,0.6390723979156113,0.1961335275221539,-0.7109885742977924,0.058672065392071926,0.0401464190761469,0.4584881463145576
14.1,-104.05545886676764,26.087695030118383,270.35681252916726,290.86235994519694,0,9.677768327319374,216.34011451823014,11.032410796867708,19.01189375097224,-0.023454503107274233,-0.015815205413609645,0.040637416087179336,0.08246402980071013,-0.11725125270629716,-0.07866992154195229,-0.9197771450573166,0.7491314060291286,-365495444177.25146,0.0,814632978.8913147,0.2590882040244868,0.442748248925647,0.13532585179499285,-0.847663969061207,-0.11725125270629716,-0.07866992154195229,-0.9197771450573166
14.3,-104.05780371010006,26.086121656563122,270.38366432756,290.8880165824116,0,9.684045763949957,216.69074666367496,11.03240408391811,19.012788810918664,-0.011724216662116697,-0.007866867776300482,0.13425899196363317,0.10126292172196258,0.058651432225787364,0.0397416881865456,0.4681078793822667,0.6651384553820521,-365495444168.08026,0.0,814632978.7072022,0.21641997073352923,0.6401087089604744,0.19485420816606458,-0.7109536374058641,0.058651432225787364,0.0397416881865456,0.4681078793822667
14.41,-104.06014803474429,26.084556494689444,270.3876846258338,290.89245176500697,0,9.687053398557447,216.88081797993723,11.032403078843542,19.012922820861128,-0.021312042220245186,-0.014228744306166236,0.03654816612559214,0.124168222372293,-0.08716205052844125,-0.05783524118059807,-0.8882802348912866,0.7805850719575302,-186911964562.81885,0.0,513915117324.85077,0.2573690677653385,0.4416253971691458,0.13387557336779293,-0.8490026515790392,-0.08716205052844125,-0.05783524118059807,-0.8882802348912866
14.6,-104.06249163900343,26.08299957901199,270.4148603689029,290.9184107984396,0,9.691885330512319,217.20444565163936,11.032396284907774,19.01382867896343,-0.012334759258623651,-0.00819429303923497,0.14303022667951718,0.12107510060172717,0.04724885769274505,0.03176026982595412,0.5604318976522384,0.8102048602031889,-186911964562.81885,0.0,513915117324.85077,0.2146242193396696,0.6411289219428284,0.193550499462222,-0.710934845171615,0.04724885769274505,0.03176026982595412,0.5604318976522384
14.7,-104.06483455119468,26.081450923863752,270.4394904035122,290.94200425887766,0,9.694243603590284,217.37238167213866,11.032390127399122,19.014649680117074,-0.0234291219125283,-0.015486551482375488,0.2463003460928812,0.1418230341740491,-0.11094362653904688,-0.07292258443140544,1.032701194133644,1.128590820209696,-186911964562.81885,0.0,513915117324.85077,0.21479847010480838,0.6376564440697342,0.19169761173941047,-0.7144983570522621,-0.11094362653904688,-0.07292258443140544,1.032701194133644
14.9,-104.06717679965057,26.07991058339536,270.44569627825086,290.948472514491,0,9.697932466868796,217.70326335739577,11.032388575930437,19.014856542608364,-0.011711242279446248,-0.007701702341957843,0.031029373693342965,0.15879423547005003,0.05858939816540995,0.038924245702088016,-1.0763548619976855,1.0589661336250356,-186911964562.81885,0.0,513915117324.85077,0.24093333005191772,0.5195879535429728,0.15553918747312778,-0.8048521915006,0.05858939816540995,0.038924245702088016,-1.0763548619976855
15.0,-104.06951818271997,26.078378571574298,270.46940564356566,290.971211347256,0,9.699684029643766,217.86619431635535,11.032382648589108,19.015646854785523,-0.023413830694067966,-0.015320118210624454,0.23709365314800918,0.13844017395498373,-0.1170258841462176,-0.07618415868666639,2.0606427945466694,1.1428589687873372,-186911964562.81885,0.0,513915117324.85077,0.2135066744617598,0.6366933656696466,0.18979136736321697,-0.7162511395781077,-0.1170258841462176,-0.07618415868666639,2.0606427945466694
15.2,-104.07185870876931,26.076854932184176,270.49515315177433,290.9958453601255,0,9.70237181946891,218.1870002605127,11.032376211712055,19.016505105059146,-0.011702630246688314,-0.007618196950609528,0.128737541043336,0.11531177099180737,0.05855600223689847,0.038509606300074765,-0.5417805605233678,1.0356603164177962,-186911964562.81885,0.0,513915117324.85077,0.21177491623126207,0.640285026376786,0.19004638180577027,-0.7134906044339027,0.05855600223689847,0.038509606300074765,-0.5417805605233678
15.3,-104.07419841618369,26.07533970882397,270.49829805707833,290.99946970514867,0,9.703318871113735,218.34486098772135,11.03237542548573,19.016609935235945,-0.02339707414378689,-0.015152233602044658,0.03144905303997758,0.11667412447556991,-0.11694443897098408,-0.07534036651435022,-0.9728848800335704,1.0249024885693323,-186911964562.81885,0.0,513915117324.85077,0.25845502140953924,0.39348011467678007,0.1162837206112947,-0.8745584586423808,-0.11694443897098408,-0.07534036651435022,-0.9728848800335704
15.5,-104.07653712336806,26.073832914907285,270.5246022155759,291.02462223386163,0,9.704813550534473,218.65546287267864,11.032368849446106,19.017486740519196,-0.011693535921821804,-0.007533969583430915,0.13152079248783413,0.09506795868427301,0.05851769110982563,0.03809132009306885,0.5003586972392845,0.712787778359784,-186911964562.81885,0.0,513915117324.85077,0.20983929832699916,0.6416844738206609,0.18881587632538427,-0.7131318740475786,0.05851769110982563,0.03809132009306885,0.5003586972392845
15.6,-104.07887488874827,26.072334603661627,270.5275997852747,291.02811045563067,0,9.705159438312679,218.80819022595023,11.03236810005368,19.017586659509156,-0.023377653802185788,-0.014983112456583623,0.029975696987776353,0.0764532011604555,-0.11684117880364026,-0.07449142873152734,-1.0154509550005812,0.7930516920003494,-186911964562.81885,0.0,513915117324.85077,0.25763516639839584,0.38412877224291764,0.11253259090789652,-0.8794348317832172,-0.11684117880364026,-0.07449142873152734,-1.0154509550005812
15.8,-104.0812115007723,26.07084476812766,270.55359412610414,291.0529759836601,0,9.705451234258522,219.1084638150948,11.032361601468473,19.018453137536806,-0.011683060120120041,-0.007449177669833733,0.12997170414735068,0.09615180632565476,0.058472968410328424,0.03766967393374925,0.499980035797869,0.7164043814207373,-186911964562.81885,0.0,513915117324.85077,0.20822825913224574,0.6418330025410997,0.18720967352786974,-0.7138934984193508,0.058472968410328424,0.03766967393374925,0.499980035797869
15.91,-104.08354710791133,26.06936350115847,270.5564922999282,291.0563725767939,0,9.70515674847293,219.2706541433393,11.032360876925017,19.01854974333094,-0.02123279217300944,-0.013466063356272175,0.026347034764223252,0.116228400826347,-0.08681574593535862,-0.0546989607858043,-0.9420424489375269,0.7828595451723845,-186911964562.81885,0.0,513915117324.85077,0.2563598223166763,0.37785097651119554,0.10971616756835433,-0.8828763467357198,-0.08681574593535862,-0.0546989607858043,-0.9420424489375269
16.1,-104.08588146866094,26.067890785418864,270.5830475705572,291.081760479215,0,9.704293744548353,219.54582189342418,11.032354238107361,19.019434919018572,-0.012286109208497082,-0.007751135471610187,0.13976458225783878,0.1131751875138659,0.047087805076380516,0.030078567814010262,0.5969344604927093,0.7994020292775641,-186911964562.81885,0.0,513915117324.85077,0.20627214568719238,0.6432219194889435,0.18594386601217025,-0.7135420400333878,0.047087805076380516,0.030078567814010262,0.5969344604927093
16.21,-104.0882145915422,26.066426673384637,270.60848900375976,291.10611353469,0,9.703565010561551,219.70223234012272,11.032347877749059,19.02028296679199,-0.021210208011397905,-0.013310109402069002,0.23128575638690105,0.1385285677658557,-0.08112817093546244,-0.050536126640534945,0.8320106739005704,1.1689522880472414,-186911964562.81885,0.0,513915117324.85077,0.20581093133441247,0.6419154451929856,0.18473112380268575,-0.7151648996312316,-0.08112817093546244,-0.050536126640534945,0.8320106739005704
16.4,-104.09054657510279,26.06497121734185,270.6125003672751,291.1105459544415,0,9.701337766311099,219.96736217026677,11.03234687490818,19.02041667890917,-0.01227359768734019,-0.007660294962039657,0.021112439554527854,0.15697126704927356,0.04703479117925169,0.029735865473839013,-1.1061753517493458,1.1021401456848534,-186911964562.81885,0.0,513915117324.85077,0.24362150999745005,0.4481900426031274,0.12838707432850768,-0.8504651696120985,0.04703479117925169,0.029735865473839013,-1.1061753517493458
16.5,-104.0928771379182,26.06352438938613,270.63810133082444,291.1350481587531,0,9.700111070216082,220.1043312027646,11.032340474667294,19.021270044360815,-0.023305628154019712,-0.014468279557178014,0.25600963549322475,0.13728696001266572,-0.11032030466679364,-0.06807984595138261,2.348971959386936,1.2051371997190636,-186911964562.81885,0.0,513915117324.85077,0.2039781284943226,0.6427557049870898,0.18328948006457058,-0.7153062234457088,-0.11032030466679364,-0.06807984595138261,2.348971959386936
16.71,-104.09520632859278,26.06208627142194,270.6649750661221,291.16073404385395,0,9.69661737315813,220.3861572640814,11.032333756233468,19.022165835537404,-0.01109138416469906,-0.006848180781864622,0.12797016808414238,0.11627106082172353,0.058163066615812394,0.03628618464434934,-0.6097117495670564,1.1321731412200324,-186911964562.81885,0.0,513915117324.85077,0.20262759717341466,0.6448482945282954,0.18303619207529895,-0.7138700766233665,0.058163066615812394,0.03628618464434934,-0.6097117495670564
16.8,-104.09753422576097,26.060656905161913,270.66760024688773,291.16387875837387,0,9.69476240686503,220.5045198979427,11.032333099938278,19.022253341562923,-0.02586552409095732,-0.015881847333629517,0.029168675173549617,0.11870311695705182,-0.1641571102917587,-0.10037407279738789,-1.0977943656732545,1.114081651517567,-186911964562.81885,0.0,513915117324.85077,0.2521926688829948,0.3594132632696907,0.10153635194465743,-0.892698903987943,-0.1641571102917587,-0.10037407279738789,-1.0977943656732545
17.01,-104.09986054808833,26.05923628212612,270.69424834885643,291.18935566207,0,9.690013423783132,220.775021494724,11.032326437912786,19.023141611628546,-0.01107772536839554,-0.00676487159902346,0.1268957236604923,0.09552916857592625,0.0704180891550558,0.04341417016479057,0.46536689755686794,0.7650723210742659,-186911964562.81885,0.0,513915117324.85077,0.20091337255497677,0.645144524161326,0.181410593954315,-0.7145016137661161,0.0704180891550558,0.04341417016479057,0.46536689755686794
17.11,-104.10218546427275,26.057824483641383,270.6968666497905,291.1924944933721,0,9.687343775459846,220.90102607307088,11.032325783337551,19.02322888832635,-0.023249161844205942,-0.014117984847353016,0.02618300934045748,0.07641705251390084,-0.12171436475810661,-0.07353113248329712,-1.0071271432003697,0.8591790470995022,-186911964562.81885,0.0,513915117324.85077,0.24994919242539773,0.3600346772093921,0.10075414610634277,-0.8931679766175016,-0.12171436475810661,-0.07353113248329712,-1.0071271432003697
17.3,-104.10450868304557,26.0564214808406,270.7236344294899,291.2180833451755,0,9.681944023696332,221.13542212361364,11.032319091392628,19.024121147649666,-0.012227467225344624,-0.007384225267271791,0.14088305104953658,0.0964544476070848,0.05800891904663813,0.035440839895164104,0.6036844300477807,0.7625257264131962,-186911964562.81885,0.0,513915117324.85077,0.19906624276301632,0.6459087968138655,0.17990343639028586,-0.7147091791530643,0.05800891904663813,0.035440839895164104,0.6036844300477807
17.41,-104.10683042317264,26.055027364662024,270.7260634698026,291.22104668719965,0,9.67836121181027,221.26811091169353,11.03231848413255,19.02420211566009,-0.02110672842793427,-0.012673783441612069,0.02208218466121677,0.12205272420237927,-0.08072055638717901,-0.048086892494002775,-1.0800078762574583,0.8945358132361955,-186911964562.81885,0.0,513915117324.85077,0.24944828702321786,0.34448598621258064,0.09548005365433264,-0.8999936203987747,-0.08072055638717901,-0.048086892494002775,-1.0800078762574583
17.6,-104.10915034345555,26.05364210584862,270.75296185463577,291.24675758757166,0,9.671838252821594,221.49206935496062,11.032311759536341,19.02509872848786,-0.012210106752182669,-0.0072908358600187245,0.14157044649024053,0.11945686404231456,0.046824324609218634,0.028331303061017412,0.628885588573805,0.9248202660108937,-186911964562.81885,0.0,513915117324.85077,0.19719959778495355,0.6466873121026269,0.17838271006319234,-0.7149038031437818,0.046824324609218634,0.028331303061017412,0.628885588573805
17.7,-104.1114685327327,26.052265764947364,270.778374169965,291.2710873905256,0,9.66823268727574,221.6072705583609,11.032305406457509,19.0259458056655,-0.023181892771476025,-0.01376340901256186,0.2541231532922038,0.13562102875856366,-0.1097178601929359,-0.06472573152543273,1.1255270680196567,1.1680054876477632,-186911964562.81885,0.0,513915117324.85077,0.1967962895019857,0.6449141186826548,0.1770226291588465,-0.7169518733692762,-0.1097178601929359,-0.06472573152543273,1.1255270680196567
17.9,-104.11378511988048,26.05089840230858,270.7825354038452,291.27566159789376,0,9.6599671980035,221.83212031178587,11.032304366149038,19.026084513461505,-0.011582935738871966,-0.006836813193924509,0.02080616940105536,0.15643340364370228,0.0579947851630205,0.034632979093186876,-1.1665849194557463,1.0409787785700673,20.687683600472177,0.0,-0.10158777627800078,0.2314038922430265,0.46118340385677153,0.12595432202288506,-0.8472883897620781,0.0579947851630205,0.034632979093186876,-1.1665849194557463
18.01,-104.11609968381427,26.049539968085256,270.80685464642,291.2989757438328,0,9.655308430259389,221.95262027996372,11.032298286338394,19.026895154880666,-0.021041490307217917,-0.012349402030215232,0.22108402340718197,0.1360216489252251,-0.08598685971223359,-0.05011444396627794,1.8207077636920106,1.1288918137777326,6.8197517908455465,0.0,0.10169497138459178,0.19535553167389924,0.6438449126462374,0.17498296670565178,-0.7188051934055957,-0.08598685971223359,-0.05011444396627794,1.8207077636920106
18.2,-104.1184123934897,26.0481905522324,270.83277208993167,291.32377600927646,0,9.64654597866023,222.15543897824057,11.032291806977517,19.02775906966439,-0.012172156186508085,-0.00710218869924906,0.1364075974298614,0.11028966566514138,0.04668070589847336,0.02761691226824334,-0.44566539988063997,0.9993936177012216,6.8197517908455465,0.0,0.10169497138459178,0.19382985571450984,0.6465673602874429,0.1748364450680548,-0.7168074030871788,0.04668070589847336,0.02761691226824334,-0.44566539988063997
18.3,-104.1207233279038,26.046850204506345,270.8357792287307,291.3272777175794,0,9.641546575953903,222.25947103435806,11.032291055192816,19.027859307624357,-0.023109344140976543,-0.013403477260531624,0.030071387990346494,0.11327733586045172,-0.10937187954468303,-0.06301288561282474,-1.0633620943951338,0.960875830592598,6.8197517908455465,0.0,0.10169497138459178,0.23696547709762183,0.39571502039764833,0.10645297733633566,-0.8808659085875755,-0.10937187954468303,-0.06301288561282474,-1.0633620943951338
18.5,-104.12303212609594,26.04551888446414,270.8610167592846,291.35144632036145,0,9.631160573543445,222.46189603116898,11.032284745810179,19.02870055864282,-0.011543990960660763,-0.006656600211023568,0.12618765276954536,0.09557996142611247,0.057826765901579105,0.033734385247540404,0.48058132389599606,0.7008257198194541,6.8197517908455465,0.0,0.10169497138459178,0.19218841433998007,0.6462005761420009,0.17296155269201285,-0.718033933792546,0.057826765901579105,0.033734385247540404,0.48058132389599606
18.6,-104.12533905714915,26.044196701462873,270.86396658018765,291.3548949428236,0,9.625582231959704,222.56027997522926,11.032284008354953,19.028798886006257,-0.02306931053212192,-0.013221830012674997,0.029498209030407032,0.07992952876237773,-0.11525319571460992,-0.06565229801651336,-0.9668944373913695,0.7745423718593376,6.8197517908455465,0.0,0.10169497138459178,0.23507400109715998,0.39280120068276514,0.1045843465346569,-0.8828983776235345,-0.11525319571460992,-0.06565229801651336,-0.9668944373913695
18.8,-104.12764372019112,26.042883604659014,270.8906227921698,291.3803828158211,0,9.614058616464888,222.75136889183602,11.032277344301956,19.02968742640566,-0.011523315209842663,-0.006565484019294156,0.13328105991064423,0.11464356198052952,0.057729976611396484,0.03328172996690432,0.5189142544011879,0.7217094752587028,6.8197517908455465,0.0,0.10169497138459178,0.18981318079864962,0.6488096964610663,0.17186280082332114,-0.7165752660163213,0.057729976611396484,0.03328172996690432,0.5189142544011879
18.9,-104.12994644439537,26.041579733007787,270.89588279810465,291.3859793100342,0,9.607930057710307,222.8440653715732,11.032276029300473,19.029862759936822,-0.023027242042559726,-0.013038716512277226,0.05260005934872082,0.17613072312596284,-0.11503926832717308,-0.0647323249298321,-0.8068100056192513,1.0657271884153419,6.8197517908455465,0.0,0.10169497138459178,0.21688487650087004,0.5073677342153436,0.13367272861908017,-0.8232074673166665,-0.11503926832717308,-0.0647323249298321,-0.8068100056192513
19.1,-104.13224687898241,26.04028502526252,270.9385601030191,291.4263622855001,0,9.595425463610212,223.02374177495693,11.032265359974245,19.031285336767304,-0.011502172935209224,-0.006473538726332514,0.2133865245721692,0.24331071409738558,0.05762534553675169,0.032825888929723095,0.8039323261172304,0.9301588424350928,6.8197517908455465,0.0,0.10169497138459178,0.18471291864487155,0.6625564495675146,0.1736407551446949,-0.7048042118027975,0.05762534553675169,0.032825888929723095,0.8039323261172304
19.2,-104.13454506322074,26.038999509974026,270.981912714101,291.46737379884735,0,9.589110074511659,223.11071371301512,11.032254521821475,19.032730423803365,-0.022981842383274432,-0.012855152884938822,0.4335261108190117,0.2992754661413931,-0.11479669448065452,-0.06381614158606444,2.201395862468472,0.9050396711831553,6.8197517908455465,0.0,0.10169497138459178,0.18369263004380934,0.6631742306562658,0.17287348413410375,-0.7046784486163841,-0.11479669448065452,-0.06381614158606444,2.201395862468472
19.4,-104.13684125642811,26.037723445489974,271.05698944070764,291.53788137007206,0,9.575799922451477,223.27890573501014,11.032235752639822,19.03523298135692,-0.011480966036856485,-0.0063803224202630075,0.3753836330332674,0.3489528789511998,0.05750438173208994,0.03237415232337919,-0.2907123889287227,0.8482853137187808,6.8197517908455465,0.0,0.10169497138459178,0.18049270281375823,0.6724131368113958,0.174287692313013,-0.6963524667742967,0.05750438173208994,0.03237415232337919,-0.2907123889287227
19.5,-104.13913489797254,26.036456549954234,271.0982826943736,291.5769801730142,0,9.568902256951475,223.36011834377368,11.032225429326406,19.036609423145787,-0.022936415444263177,-0.012668955357390918,0.41293253665969,0.3378836147398969,-0.11455449407406529,-0.06288632937127821,0.3754890362642207,0.9894761814872025,6.8197517908455465,0.0,0.10169497138459178,0.18203616629113592,0.662680907957542,0.17085115290056782,-0.7060642548261032,-0.11455449407406529,-0.06288632937127821,0.3754890362642207
19.7,-104.14142642727347,26.035199121306295,271.1596807888186,291.63477292169273,0,9.554338420270977,223.5167587098137,11.032210079802795,19.038656026293953,-0.01145764650466678,-0.006287143239696058,0.30699047222498277,0.32184007823774596,0.057393844697982185,0.03190906058847441,-0.529710322173538,0.746425881211928,6.8197517908455465,0.0,0.10169497138459178,0.17927562949037498,0.6702357012854918,0.17180585083200686,-0.6993762242263208,0.057393844697982185,0.03190906058847441,-0.529710322173538
19.8,-104.14371516380287,26.033950757280625,271.1753096399552,291.6500103865545,0,9.54662900696317,223.59217950532195,11.03220617259001,19.03917698799851,-0.02288736529393954,-0.012483640256703944,0.15628851136568533,0.3110431839780972,-0.11429718789272596,-0.061964970170077974,-1.507019608592953,0.7582297411875631,6.8197517908455465,0.0,0.10169497138459178,0.1885391344875127,0.6262822155688411,0.1596939804694764,-0.7394061223919489,-0.11429718789272596,-0.061964970170077974,-1.507019608592953
20.0,-104.14600167708636,26.03271195540606,271.2460833658961,291.7165224981531,0,9.531055687310324,223.73720556134907,11.032188479158526,19.041536112196535,-0.011432566417468632,-0.006194009372819686,0.3538686297045514,0.31201739279069957,0.05727399438235474,0.0314481544194214,0.9879005916943339,0.7774270382600194,6.8197517908455465,0.0,0.10169497138459178,0.17690824027994334,0.6727263047138639,0.1705272509801939,-0.6978991690353423,0.05727399438235474,0.0314481544194214,0.9879005916943339
20.1,-104.14828564670432,26.031482423005226,271.2781414869612,291.7470368811078,0,9.522962541520014,223.80680437628936,11.03218046462826,19.042604716232038,-0.022839696179630338,-0.01229532400834881,0.32058121065119394,0.3344475533981394,-0.11407129762161543,-0.061013146355290364,-0.33287419053357,0.6964140327275724,6.8197517908455465,0.0,0.10169497138459178,0.17966428319959132,0.6574301913105827,0.16571441719257102,-0.7127727694225098,-0.11407129762161543,-0.061013146355290364,-0.33287419053357
20.3,-104.15056703229303,26.030262387193883,271.36182832568534,291.8255592736062,0,9.506429765559973,223.94015811381485,11.032159542918578,19.045394277522846,-0.011406927943511431,-0.006100179056716137,0.41843419362067075,0.3955529790087924,0.05716384118059474,0.030975724758163473,0.48926491484738577,0.4753907198888451,6.8197517908455465,0.0,0.10169497138459178,0.17451959697654032,0.6752176884603551,0.1692078127134003,-0.6964141724420517,0.05716384118059474,0.030975724758163473,0.48926491484738577
20.4,-104.1528457935457,26.029051694880376,271.40369080682416,291.86519183108334,0,9.497894209975001,224.00390710958922,11.032149077298294,19.046789693560804,-0.022787612526685083,-0.01210692313506482,0.4186248113882219,0.41493012597184026,-0.11380684583173895,-0.06006744078348812,0.0019061776755114185,0.29423130977123524,6.8197517908455465,0.0,0.10169497138459178,0.17613383922244472,0.6646888020461231,0.1656112052631428,-0.7069219163433406,-0.11380684583173895,-0.06006744078348812,0.0019061776755114185
20.51,-104.15512155021365,26.02785051276502,271.4546631573614,291.9132961982567,0,9.488348336249008,224.0717720395872,11.032136334210659,19.048488771912044,-0.020688696981416482,-0.01091983741232418,0.4633850048838252,0.40612637037819965,0.019081050411532217,0.010791688388550987,0.4069108499600193,0.3962831454493375,1079394863658.6829,0.0,-308052433982.46985,0.17425517754965186,0.6688348704528886,0.16567993428943462,-0.7034523498697376,0.019081050411532217,0.010791688388550987,0.4069108499600193
20.7,-104.15739499210746,26.026658867339513,271.54031340651494,291.9936501163118,0,9.471331260063305,224.1834088667562,11.03211492164837,19.051343780217167,-0.011965483651609295,-0.0062718180289853594,0.45079078501873876,0.5304782888146573,0.0459116491042489,0.024463259912309875,-0.06628536771098219,1.8233134516013956,1079394863658.6829,0.0,-308052433982.46985,0.1715514043986567,0.6762428645415537,0.16648726757701582,-0.6968125239547734,0.0459116491042489,0.024463259912309875,-0.06628536771098219
20.9,-104.1596654790979,26.025476634886346,271.5957763857436,292.0459331977856,0,9.452386930748661,224.29326263823438,11.032101055903563,19.053192546191454,-0.011352434952200991,-0.00591116226583923,0.27731489614325355,0.517486627797776,0.0030652434970415286,0.001803278815730653,-0.8673794443774291,3.17064344086903,1079394863658.6829,0.0,-308052433982.46985,0.17193557165279083,0.6708140087276947,0.16418308055935737,-0.7024888902702646,0.0030652434970415286,0.001803278815730653,-0.8673794443774291
21.0,-104.16193305111729,26.024303891478255,271.6997844287526,292.14336471775647,0,9.443416577585273,224.3452378494807,11.032075053892811,19.05665948095842,-0.02267572019391618,-0.011727434080910204,1.0400804300900142,0.48941010868658436,-0.1132328524171503,-0.05816271815070891,7.6276553394674975,3.121932286145679,1079394863658.6829,0.0,-308052433982.46985,0.1691911090559167,0.6785843391282779,0.16508926244722955,-0.6954446050771385,-0.1132328524171503,-0.05816271815070891,7.6276553394674975
21.1,-104.16419791816034,26.023140722977587,271.7351389714996,292.1769493524117,0,9.433587048984613,224.39524216856668,11.032066215257124,19.057837965716654,-0.022648670430526995,-0.011631685006676497,0.3535454274702892,0.4367509562774557,0.00027049763389186025,0.000957490742337055,-6.865350026197152,3.3809615948006075,1079394863658.6829,0.0,-308052433982.46985,0.17203734250414218,0.6621594320008012,0.16009344740422277,-0.7115603470505647,0.00027049763389186025,0.000957490742337055,-6.865350026197152
21.3,-104.16645989028547,26.021987235035787,271.7998076522006,292.23779807805164,0,9.413353756789146,224.4893293283274,11.03205004808695,19.059993588406687,-0.011309860625630148,-0.005767439708996867,0.32334340350502205,0.48997153433864293,0.05669404902448444,0.029321226488398255,-0.15101011982633636,3.565294384905517,1079394863658.6829,0.0,-308052433982.46985,0.16839528035891915,0.6739195530599873,0.1619132785618816,-0.7008991052795048,0.05669404902448444,0.029321226488398255,-0.15101011982633636
21.4,-104.16871886761575,26.020843263092814,271.81840581133497,292.2557989372639,0,9.402844921386642,224.53340798736608,11.032045398547165,19.0606135270445,-0.022589773302855092,-0.011439719429731343,0.18598159134342437,0.3378547203536,-0.11279912677225185,-0.05672279720734597,-1.3736181216160062,2.303591060461348,1079394863658.6829,0.0,-308052433982.46985,0.17494636617079345,0.6397012816323155,0.1527415754467449,-0.7326977892498747,-0.11279912677225185,-0.05672279720734597,-1.3736181216160062
21.6,-104.17097475034016,26.019708982376557,271.9271190916509,292.35761548734877,0,9.382038112473875,224.61562566862588,11.032018220227087,19.06423730305503,-0.011279413622062702,-0.0056714035812887335,0.5435664015797592,0.6099355994269429,0.05655179840396115,0.02884157924221264,1.7879240511816488,3.8009409826429077,-2019340728241.7837,0.0,321995715551.6875,0.16511668907636778,0.6799734542763582,0.16132618855763348,-0.6959500279139317,0.05655179840396115,0.02884157924221264,1.7879240511816488
21.8,-104.1732275987145,26.018584287902296,271.9830243381707,292.41031719968123,0,9.360038138624455,224.68991180060564,11.032004243915457,19.066100811272356,-0.011264241871700205,-0.005623472371301139,0.2795262325989266,0.7747519098302433,7.585875181248736e-05,0.00023965604993797255,-1.3202008449041678,4.7994939142633495,1551185261808.413,0.0,641821571457.2365,0.1658584170973205,0.672579052377705,0.15855625467319504,-0.7035540618066877,7.585875181248736e-05,0.00023965604993797255,-1.3202008449041678
21.9,-104.17547743306265,26.017469434472183,272.1544924981951,292.570515604581,0,9.350226709833542,224.72407635352403,11.03196137687545,19.071816416606502,-0.02249834348148786,-0.011148534301135509,1.7146816002440712,1.0431645522244342,-0.11234101609787896,-0.05525061929834487,14.35155367645175,4.906011636428133,2453093711726.833,0.0,322008148165.06775,0.16240209293643457,0.6834220962814219,0.16004135715695997,-0.6935031092385463,-0.11234101609787896,-0.05525061929834487,14.35155367645175
22.01,-104.17772381377758,26.016364116674637,272.2807118213085,292.6886321174595,0,9.338622115317586,224.75936147849427,11.031929822044672,19.07602372737695,-0.020421642862928763,-0.010048343614049948,1.147448391939871,1.2940958266210305,0.018879096532354915,0.010001733518959376,-5.156665530038044,5.085749626031907,1226546855863.4197,0.0,161004074082.2998,0.16184322044429766,0.6818429456068315,0.15866485873429823,-0.6955015687439124,0.018879096532354915,0.010001733518959376,-5.156665530038044
22.21,-104.17996713132247,26.015268508883825,272.58665375938295,292.9739639538136,0,9.317787581159998,224.81734819391818,11.031853336560154,19.086221791979433,-0.011216587724476352,-0.005478038954063199,1.529709690372277,1.6817339475628317,0.04602527569226222,0.022851523299933823,1.9113064921620373,5.26374245276829,0.0512688081255019,0.0,-0.40349531831358487,0.15989496721043392,0.6861249699044605,0.15859550740270192,-0.6917467673694306,0.04602527569226222,0.022851523299933823,1.9113064921620373
22.31,-104.18220716623179,26.01418268525914,272.7664734665825,293.1419776118827,0,9.307399413942523,224.84335436165958,11.031808381633354,19.092215782219416,-0.02240034909320391,-0.010858236246847017,1.7981970719955982,1.8412300715817733,-0.11183761368727796,-0.05380197292783932,2.684873816233268,2.6876771566874718,0.18043039072268807,0.0,-0.40727387759610734,0.1593205027172836,0.6843895208670527,0.15713021752903966,-0.6939294314846106,-0.11183761368727796,-0.05380197292783932,2.684873816233268
22.5,-104.18444376911242,26.013106569744657,273.18788619936754,293.5348381418581,0,9.288025255769519,224.88727439718247,11.031703028450158,19.106262873312254,-0.011771594108572972,-0.005663765865698503,2.217961751500139,2.1099401083304925,0.05594081570858351,0.027339317795518313,2.2092877868659886,1.6989857001030653,0.26939616275671074,0.0,-0.33034709009325186,0.15768629991204217,0.6873728103974694,0.15676030085208487,-0.6914331915833213,0.05594081570858351,0.027339317795518313,2.2092877868659886
22.7,-104.18667682064468,26.0120401960686,273.69034931649816,294.0032264637212,0,9.267613398223489,224.92572553980804,11.031577412670876,19.123011643883274,-0.011165257661289769,-0.005331868380285007,2.512315585653093,2.441512914031566,0.0030316822364160234,0.0016594874270674865,1.471769170764777,2.8641449977011275,0.10525080591779865,0.0,-0.17368588605703864,0.1565996684003009,0.6879349285232496,0.15583032212186868,-0.6913313161444533,0.0030316822364160234,0.0016594874270674865,1.471769170764777
22.81,-104.18890656158348,26.010983757742828,273.9643728790383,294.2590306745889,0,9.256101927167604,224.94346972623535,11.03150890678024,19.132145762634607,-0.020270372170924495,-0.00960398477974815,2.491123295819568,2.676194345729101,-0.08277376826940702,-0.0388374218133015,-0.19265718030477627,2.5428788372746367,221156660235.5433,0.0,172094506246.56927,0.15585866137681054,0.6867603090857237,0.15446160524199992,-0.6929718378436273,-0.08277376826940702,-0.0388374218133015,-0.19265718030477627
22.9,-104.19113281275939,26.009937168062297,274.25124855035875,294.526834634339,0,9.24717363829193,224.9561900051043,11.03143718786241,19.14170828501196,-0.02473612417680396,-0.011628774228119235,3.187507459116058,2.5361386365980136,-0.04961946673199412,-0.022497660537456544,7.737601814405459,3.5549246254564046,442313320471.02423,0.0,344189012493.22253,0.1547824429291019,0.687140721214095,0.15346085806674903,-0.6930582873407473,-0.04961946673199412,-0.022497660537456544,7.737601814405459
23.1,-104.1933553150797,26.008900370104577,274.84559879614056,295.08104203402416,0,9.226466544080347,224.97866237724656,11.031288600300964,19.161519959871352,-0.011112511601538541,-0.005183989788601832,2.971751228909014,3.2428246558416243,0.06811806287632612,0.03222392219758655,-1.0787811510352043,12.316711724855429,234662022174.12857,0.0,687621642916.0642,0.15341606537966673,0.6889077122838991,0.1527843375279328,-0.6917561861272633,0.06811806287632612,0.03222392219758655,-1.0787811510352043
23.3,-104.1955741795295,26.007873516729322,275.1491332843781,295.364474354328,0,9.20226010777742,224.99313866120556,11.031212716678905,19.171637776145936,-0.0110943222490079,-0.005134266876272183,1.5176724411875906,3.3011129914200987,9.094676265320974e-05,0.00024861456164824904,-7.270393938607144,15.537171706986328,234662022174.12857,0.0,687621642916.0642,0.15265627911112853,0.6877798586598537,0.15143159453815971,-0.6933421944793259,9.094676265320974e-05,0.00024861456164824904,-7.270393938607144
23.4,-104.19778950717286,26.006856620577764,275.7537059853818,295.92844117140345,0,9.19446664599207,224.9973774103485,11.031061573503655,19.191790199512727,-0.02215327643355683,-0.010168961515582215,6.045727010037596,3.1123297164239756,-0.11058954184549165,-0.050346946393101395,45.28054568850102,15.068007497757858,234662022174.12857,0.0,687621642916.0642,0.1512794255338291,0.6894072867360732,0.15067071294177406,-0.6921925054975515,-0.11058954184549165,-0.050346946393101395,45.28054568850102
23.6,-104.2000008891537,26.00584956407223,276.31023387178107,296.4477858563412,0,9.171923870258162,224.99985518102872,11.030922441532054,19.210341129059366,-0.011056909904212217,-0.005035282527678859,2.7826394319961483,3.0800611319533147,0.05548183264672227,0.025668394939516413,-16.315437890207008,15.98523030493784,234662022174.12857,0.0,687621642916.0642,0.1502650015713618,0.6895169915867854,0.14961035232432204,-0.6925341075306398,0.05548183264672227,0.025668394939516413,-16.315437890207008
23.7,-104.20220892669712,26.004852439415632,276.53459161852595,296.65760239242775,0,9.159901392705136,224.9980940924433,11.030866352095368,19.21781972061753,-0.022080375434257365,-0.009971246565960925,2.2435774674489064,3.3118596123927526,-0.11023465530045383,-0.049359640382821715,-5.390619645472533,14.665342082365825,234662022174.12857,0.0,687621642916.0642,0.1496479445699605,0.6875208965977645,0.1480406850500303,-0.6949852264597499,-0.11023465530045383,-0.049359640382821715,-5.390619645472533
23.8,-104.20441305111027,26.00386551859099,276.81562460289035,296.9202767503824,0,9.148306213142776,224.99433309597197,11.030796093849277,19.22718748676301,-0.02204124413140076,-0.009869208246406773,2.8103298436439728,2.642417925639468,0.00039131302856605096,0.0010203831955415126,5.667523761950583,5.658885535203655,234662022174.12857,0.0,687621642916.0642,0.14837927321242714,0.6885217983558624,0.1471096895982021,-0.6944638678117688,0.00039131302856605096,0.0010203831955415126,5.667523761950583
24.0,-104.2066134737835,26.00288843336093,277.3509620044733,297.42011469192715,0,9.124435981147034,224.98081213686774,11.03066225949888,19.245032066815778,-0.011002113366203088,-0.0048854261503095305,2.676687007914618,2.7626891444485215,0.05519565382598856,0.0249189104804863,-0.6682141786467756,3.0814206862746536,234662022174.12857,0.0,687621642916.0642,0.14700322606340388,0.690170195410355,0.14634358665377428,-0.6932811172529465,0.05519565382598856,0.0249189104804863,-0.6682141786467756
24.1,-104.20880990619153,26.001921585267226,277.6208081052008,297.6724526743714,0,9.11231926788499,224.9710527751641,11.0305947979737,19.254026936840027,-0.021964324080272178,-0.009668480937037179,2.698461007275303,2.8607513943590765,-0.10962210714068935,-0.04783054786727581,0.21773999360684607,3.3034142587311,234662022174.12857,0.0,687621642916.0642,0.14620433452767784,0.6888792828254278,0.14490988121274054,-0.6950329147501955,-0.10962210714068935,-0.04783054786727581,0.21773999360684607
24.3,-104.21100175989433,26.00096465563031,278.29760828932797,298.3044448719869,0,9.089057586037809,224.94553845617358,11.030425597927668,19.2765869429776,-0.010959268513985914,-0.004784648184585922,3.384000920635811,2.95867636344853,0.05502527783143152,0.024419163762256373,3.427699566802552,2.7361574231561976,234662022174.12857,0.0,687621642916.0642,0.1447671128244608,0.6909581871086283,0.1442564467018699,-0.6934041709544139,0.05502527783143152,0.024419163762256373,3.427699566802552
24.4,-104.21319025653833,26.000017975548797,278.57099984343995,298.5601981375751,0,9.07657999510314,224.9297846328522,11.03035725003914,19.285699994781332,-0.021884966439956098,-0.00946680081511906,2.7339155411198717,3.0448204048132963,-0.10925697925970417,-0.04682152630533238,-6.500853795159532,2.95272889522514,234662022174.12857,0.0,687621642916.0642,0.14396709779877243,0.6893991093710605,0.1427169168067608,-0.6954381528266618,-0.10925697925970417,-0.04682152630533238,-6.500853795159532
24.6,-104.21537407785739,25.999081635899042,279.2310072564529,299.17679029889865,0,9.052371332556314,224.8922871593628,11.030192248185886,19.307700241881765,-0.01091910659532387,-0.004681698248774002,3.3000370650648376,3.094144111531967,0.05482929922316036,0.02392551283172495,2.8306076197247894,3.074049163905726,13385773777.932983,0.0,10619081138.489521,0.1424865948887914,0.6914066744612647,0.141974552665852,-0.6939002861958938,0.05482929922316036,0.02392551283172495,2.8306076197247894
24.71,-104.21755423567402,25.998155247334655,279.57281681961564,299.49651515766345,0,9.03862899354893,224.8682612775204,11.030106795795096,19.319093893987187,-0.01981961651477036,-0.008421714221704924,3.107359665115584,2.7483606132912786,-0.08091372654042306,-0.0340001452084631,-1.7516127268114043,3.6785010023695044,3735270251.1069784,0.0,370932040949.7423,0.14159261949457622,0.6904798806904606,0.14061475189994127,-0.6952816379097535,-0.08091372654042306,-0.0340001452084631,-1.7516127268114043
24.9,-104.21973022190022,25.997239190286063,280.13239722650997,300.01961367369597,0,9.014231019021729,224.82107954624416,11.029966900693372,19.337746574217,-0.011452559085294087,-0.004821352887325149,2.945160036285965,3.4135467511912543,0.04403714436566512,0.018949270180946408,-0.8536822569980063,11.187828125666877,165607099748.40698,0.0,-384140953635.2577,0.1402433505146857,0.6916556356187918,0.13965289238572573,-0.6945799838762134,0.04403714436566512,0.018949270180946408,-0.8536822569980063
25.1,-104.22190206853874,25.99633308496005,280.4634097730513,300.32938322144696,0,8.985495933958338,224.76364584287256,11.029884147556738,19.348780325768374,-0.010859233192590368,-0.004530526630066525,1.65506273270663,3.3144466548940104,0.0029666294635185514,0.0014541312862931006,-6.450486517896582,13.876972664605358,330605530177.2627,0.0,-7499323197.737793,0.13932667010328822,0.6908744829188616,0.13833966908072445,-0.6958036100856052,0.0029666294635185514,0.0014541312862931006,-6.450486517896582
25.2,-104.22406924768404,25.99543753133932,281.0694002574889,300.8960404260852,0,8.975355301623052,224.7319440989134,11.029732649935628,19.368980008582962,-0.021671791453031126,-0.008955536207295913,6.059904844376107,3.3781249700501936,-0.10812558260440988,-0.04425009577229482,44.048421116695714,14.7688536279099,330605530177.2627,0.0,-7499323197.737793,0.13792593861327695,0.6922342949913685,0.1373932562027804,-0.6949181314697773,-0.10812558260440988,-0.04425009577229482,44.048421116695714
25.4,-104.22623268152333,25.994552219182033,281.6303069804064,301.42072611872055,0,8.94821553070147,224.66257787119167,11.029592423254899,19.38767689934688,-0.01081716919642876,-0.004426560786434679,2.8045336145874087,3.077484180532534,0.05427311128301202,0.022644877104306252,-16.27685614894355,16.581693670522917,330605530177.2627,0.0,-7499323197.737793,0.13675171959080556,0.6923658491941775,0.13618299699349995,-0.6952572828733631,0.05427311128301202,0.022644877104306252,-16.27685614894355
25.5,-104.22839171233768,25.993676898021423,281.9728816447214,301.74150337772113,0,8.935096251230048,224.6249164703611,11.02950677958882,19.39909605482405,-0.02159030814354393,-0.008753211606098307,3.4257466431500427,3.9663895758146794,-0.10773138947115016,-0.04326650819663567,6.212130285626253,24.60692891641336,330605530177.2627,0.0,-7499323197.737793,0.13579830327047263,0.6916702327298905,0.13487793035139722,-0.6963900156437939,-0.10773138947115016,-0.04326650819663567,6.212130285626253
25.7,-104.23054678250307,25.99281185716529,282.2612687556854,302.01168353292366,0,8.904557128310831,224.54364546385537,11.029434682811079,19.408708958522848,-0.010775350826932633,-0.004325204280668531,1.4419355548201958,3.3264652048444874,0.05407478658305667,0.02214003662714896,-9.91905544164927,18.882264355560515,330605530177.2627,0.0,-7499323197.737793,0.13467635154303398,0.6914665447139642,0.13359625275854792,-0.6970569124004602,0.05407478658305667,0.02214003662714896,-9.91905544164927
25.8,-104.23269697449138,25.991957465695634,282.8712275208833,302.58249838787106,0,8.893782090320075,224.50003947021156,11.029282193119778,19.429040917362776,-0.021501919883064297,-0.008543914696552569,6.099587651978508,3.3985102333098296,-0.10726569056131512,-0.04218710415883978,46.57652097158246,16.304029128609432,330605530177.2627,0.0,-7499323197.737793,0.1331789271978761,0.6931816604866505,0.1326747052152508,-0.6958160543645419,-0.10726569056131512,-0.04218710415883978,46.57652097158246
26.01,-104.2348428208715,25.991113412468223,283.47189205023255,303.14477402200134,0,8.864007371422817,224.40203165560322,11.029132026987442,19.449063068341083,-0.010218316095861546,-0.0040193010829084035,2.860307282615578,3.347259405647597,0.053731446605727165,0.021545779112591177,-15.42514461601389,15.072354503556914,330605530177.2627,0.0,-7499323197.737793,0.13197426681656302,0.6933949661462009,0.13146860568541083,-0.696061936569206,0.053731446605727165,0.021545779112591177,-15.42514461601389
26.1,-104.2369846343104,25.99027930611215,283.7567132559826,303.41179262167964,0,8.851380837055933,224.3573630475999,11.029060821686004,19.45855710853275,-0.023797927098851524,-0.009267848400816738,3.164680063889596,3.630327508252601,-0.1508845666998889,-0.058317192421203805,3.3819197919335364,13.400909358853145,-1247660851.5127409,0.0,394148406654.11035,0.13107135081295382,0.692141963185203,0.13001787660170688,-0.6977500666844711,-0.1508845666998889,-0.058317192421203805,3.3819197919335364
26.2,-104.23912179757401,25.98945566502947,284.07366215271367,303.7088932641718,0,8.837259906350814,224.30585847190287,11.028981584461821,19.469122071757123,-0.02137163263611842,-0.008236410826789784,3.169488967310553,3.041821849678945,0.02426294462733156,0.010314375740269761,0.04808903420956959,4.685447464258582,-1247660851.5127409,0.0,394148406654.11035,0.12978843103618135,0.6926641233023269,0.12885392366813542,-0.6976876391439881,0.02426294462733156,0.010314375740269761,0.04808903420956959
26.4,-104.2412546435285,25.988642707394742,284.6451221573353,304.244135995082,0,8.80809645155065,224.19694427119282,11.028838719460666,19.488170738577843,-0.010664229772459104,-0.0040647881736433225,2.8573000231082903,3.063586783876646,0.053537014318296765,0.02085811326573238,-1.560944721011318,1.7886329323804298,-1247660851.5127409,0.0,394148406654.11035,0.1282956045583114,0.6940274599604696,0.12778418919564263,-0.6968050829776203,0.053537014318296765,0.02085811326573238,-1.560944721011318
26.5,-104.24338254514115,25.98783970115466,284.9608242890851,304.5401812508497,0,8.793669325470615,224.13953948679304,11.028759793927728,19.498694142969505,-0.021279016126385084,-0.008030062400834367,3.157021317497834,2.721935372423316,-0.10614786353925829,-0.03965274227190988,2.997212943895395,2.624124820596734,-1247660851.5127409,0.0,394148406654.11035,0.1273438159316321,0.693118698584611,0.12642971246199786,-0.6981300380467254,-0.10614786353925829,-0.03965274227190988,2.997212943895395
26.7,-104.24550610548141,25.98704742402765,285.55465056952715,305.09655953302945,0,8.764157845355884,224.018847306362,11.028611337357617,19.518488352317572,-0.010617801701329237,-0.0039613856350406845,2.969131402210234,3.259673579824921,0.05330607212527942,0.020343383828968484,-0.939449576438004,11.416659521458149,-1247660851.5127409,0.0,394148406654.11035,0.12582159381475966,0.6945364698325499,0.1253422690273684,-0.6971924656775372,0.05330607212527942,0.020343383828968484,-0.939449576438004
26.9,-104.247625137722,25.986265123503486,285.84594702254924,305.3698720423186,0,8.731257634545745,223.89032966901024,11.028538513244362,19.528198234084975,-0.010595161202928732,-0.00391150262082364,1.4564822651104288,3.2702332609389835,0.00011320249200252915,0.00024941507108522474,-7.563245685499053,17.000628614627814,-1247660851.5127409,0.0,394148406654.11035,0.12486731962184225,0.6933765343409223,0.12390280426731701,-0.698774090254156,0.00011320249200252915,0.00024941507108522474,-7.563245685499053
27.0,-104.24973963513989,25.985493646842887,286.4317689743622,305.918963733612,0,8.719077450211282,223.82314338951878,11.02839205775641,19.54772563247874,-0.0211449741789235,-0.007714766605992797,5.858219518129802,3.2226256278282626,-0.1054981297599462,-0.03803263985169104,44.01737253019311,16.41517339351631,-1247660851.5127409,0.0,394148406654.11035,0.12329471408859607,0.6949774814859735,0.12282190251312049,-0.6976528463127505,-0.1054981297599462,-0.03803263985169104,44.01737253019311
27.1,-104.25184924111736,25.984732141077153,286.7227724534966,306.19210084202984,0,8.703863605886283,223.75400942197925,11.028319306886626,19.557425748449887,-0.021096059774663146,-0.00761505765733961,2.910034791343564,3.210851317282413,0.0004891440426035426,0.0009970894865318541,-29.481847267861962,16.255315719403296,-1247660851.5127409,0.0,394148406654.11035,0.12233327340708218,0.6938371341082742,0.1213940524663694,-0.6992053243330726,0.0004891440426035426,0.0009970894865318541,-29.481847267861962
27.3,-104.25395433914296,25.98398146300778,287.3065811908001,306.73950818824085,0,8.673204767092841,223.60991079962054,11.0281733547023,19.57688603969334,-0.010525490128046083,-0.0037533903468656283,2.9190436865175786,3.4958070348178,0.05285284823308551,0.01930833655236998,0.045044475870073146,14.773663024716466,-1247660851.5127409,0.0,394148406654.11035,0.12074628369913443,0.6954260908047337,0.12028492692024406,-0.6980934203648433,0.05285284823308551,0.01930833655236998,0.045044475870073146
27.4,-104.25605431281268,25.983240779206085,287.5976008194355,307.0127581377714,0,8.65774556599126,223.5349525491609,11.02810059979514,19.586586693981186,-0.02099973669714972,-0.0074068380169480166,2.9101962863541697,2.9034333237370427,-0.10474246569103862,-0.03653447670082466,-0.08847400163409092,5.98524987463445,-1247660851.5127409,0.0,394148406654.11035,0.11976773356310381,0.69429664898665,0.11885482327211848,-0.699629462064041,-0.10474246569103862,-0.03653447670082466,-0.08847400163409092
27.6,-104.25814997583078,25.982510866012863,288.1738574748772,307.5532878043025,0,8.626536653598883,223.37923482686017,11.027956535631281,19.605795249162572,-0.010478315090480656,-0.003649565966110605,2.88128327720837,2.8925817171412627,0.05260710803334458,0.01878636025418679,-0.14456504572899725,0.1729822308499246,9078893313.2625,0.0,199260668919.90033,0.1181688961931339,0.6958575886995743,0.11771470924212132,-0.6985424650296882,0.05260710803334458,0.01878636025418679,-0.14456504572899725
27.8,-104.26024085201098,25.98179109953801,288.75313209490827,308.0967747086602,0,8.595060011551368,223.2158053548394,11.027811716976272,19.625104403163608,-0.010454380901023833,-0.003598832374258633,2.8963731001553685,2.8890938406486706,0.00011967094728411669,0.0002536679592598621,0.07544911473499365,0.2500958675168559,14395450001.0875,0.0,399940514661.2254,0.11690194301279812,0.6960813259242336,0.1164565388638501,-0.6987435852837905,0.00011967094728411669,0.0002536679592598621,0.07544911473499365
27.9,-104.26232607527739,25.98108162566016,289.0387099196172,308.3650840692949,0,8.579174033712953,223.13120773855115,11.027740322520096,19.63462366398724,-0.020852232664055226,-0.0070947387785126725,2.8557782470892943,2.877220203463499,-0.10397851763031614,-0.03495906404254114,-0.4059485306607511,0.27355027227178264,14395450001.0875,0.0,399940514661.2254,0.11587410338802617,0.6949261948744977,0.11498383222897667,-0.7003067143525123,-0.10397851763031614,-0.03495906404254114,-0.4059485306607511
28.0,-104.26440612966552,25.98038263002635,289.3288641913941,308.6377137056594,0,8.56326494222575,223.0446931867965,11.02766778395215,19.64429547304647,-0.02080054388130718,-0.006989956338081427,2.9015427177688067,2.5826337990947374,0.0005168878274804385,0.001047824404312441,0.45764470679511743,1.6851156364380429,14395450001.0875,0.0,399940514661.2254,0.11454813879964437,0.695193809325581,0.1136851167931043,-0.7004712596478627,0.0005168878274804385,0.001047824404312441,0.45764470679511743
28.2,-104.26648200932337,25.97969402805167,289.89904265492737,309.17292686235504,0,8.531146354983381,222.8659287422218,11.027525239336267,19.663301421830912,-0.010379398289259748,-0.0034430098734006386,2.850892317666488,3.108555667568613,0.05210572796023735,0.017734732323404005,-0.25325200051159324,9.905314916901641,14395450001.0875,0.0,399940514661.2254,0.1129736590209039,0.6967184428735633,0.11254114197929667,-0.6993960645365841,0.05210572796023735,0.017734732323404005,-0.25325200051159324
28.4,-104.2685518985124,25.979015914918918,290.1807087571993,309.4376898791595,0,8.495889790185657,222.67954380099016,11.0274548228107,19.672690291906644,-0.010349445945152561,-0.0033905656637678427,1.4083305113595708,3.0465104530866736,0.00014976172053593527,0.00026222104816398065,-7.212809031534613,12.801579774242455,14395450001.0875,0.0,399940514661.2254,0.11189450100978823,0.6955611861171074,0.1110325614439469,-0.7009607887109872,0.00014976172053593527,0.00026222104816398065,-7.212809031534613
28.5,-104.2706175016084,25.978347965578273,290.73330484748254,309.95659500118177,0,8.482289073159915,222.58350394593364,11.027316673788128,19.69111016158275,-0.02065603095999761,-0.006679493406451703,5.525960902832516,2.935254533310842,-0.10306585014844905,-0.032889277426838136,41.17630391472886,13.1113576168909,14395450001.0875,0.0,399940514661.2254,0.11034152194326573,0.6971052746491343,0.10990888849685047,-0.6998492843612728,-0.10306585014844905,-0.032889277426838136,41.17630391472886
28.7,-104.27267771310281,25.977690254746967,291.2424276773347,310.43482953402594,0,8.448956378632584,222.3857508088605,11.027189393080667,19.708080922577825,-0.010301057472048606,-0.0032885541565264137,2.5456141492608797,2.8082037889407703,0.051774867439745215,0.016954696249626505,-14.901733767858234,13.318907886427386,14395450001.0875,0.0,399940514661.2254,0.1090508106127167,0.6971977078408914,0.10858856884215273,-0.7001655515682913,0.051774867439745215,0.016954696249626505,-14.901733767858234
28.8,-104.27473170760342,25.97704347690894,291.47695240059505,310.6555009029015,0,8.432008223328172,222.28404631583962,11.027130761899851,19.715898413353166,-0.020539945006134694,-0.00646777838028347,2.3452472326033225,2.9331940637233767,-0.10238887534085943,-0.031792242237570115,-2.003669166575544,12.058923428999297,14395450001.0875,0.0,399940514661.2254,0.10792893379786983,0.6956813008329966,0.10694247383674732,-0.7020984120550633,-0.10238887534085943,-0.031792242237570115,-2.003669166575544
28.9,-104.27678026983553,25.976407216314556,291.69850797337904,310.8640220244325,0,8.414878653080097,222.1804625388317,11.027075373006655,19.723283599112634,-0.02048562232104744,-0.006362605943835,2.215555727839889,2.021530405741055,0.0005432268508725446,0.0010517243644847221,-1.2969150476343627,4.889303380469796,14395450001.0875,0.0,399940514661.2254,0.10658041968107178,0.6957138037635405,0.10555350606503033,-0.7024822949732271,0.0005432268508725446,0.0010517243644847221,-1.2969150476343627
29.1,-104.2788239346429,25.97578053698025,292.1051671540734,311.2462738312007,0,8.380107565583263,221.96767563099903,11.02697370821148,19.736838905135777,-0.01021832403687014,-0.0031333966715329617,2.0332959034717812,2.2349329915570513,0.051336491420885776,0.01614604636150996,-0.9112991218405256,7.1989010286588355,408889229784.175,0.0,1332543989650.0503,0.10508439120619509,0.6974557739034518,0.10453347036098332,-0.7011315623674703,0.051336491420885776,0.01614604636150996,-0.9112991218405256
29.3,-104.28086124698875,25.975165132688257,292.2986925033311,311.42853572728535,0,8.34302152353511,221.74742791358565,11.026925326874167,19.74328975011104,-0.010186561729241853,-0.003077021459958484,0.9676267462884914,2.131221152365887,0.00015881153814143478,0.00028187605787238876,-5.328345785916468,8.583457108107707,408889229784.175,0.0,1332543989650.0503,0.10391069605651614,0.6956573884329654,0.10277425612092735,-0.703349712051172,0.00015881153814143478,0.00028187605787238876,-5.328345785916468
29.4,-104.28289344195676,25.974559356986273,292.659951284066,311.7682579801991,0,8.3270594822842,221.63451843546756,11.026835012178983,19.755331709468866,-0.02032194968009592,-0.006057757019846251,3.612587807348936,2.100776748903957,-0.10135387950854283,-0.029807355598878302,26.44961061060501,8.797685092016149,408889229784.175,0.0,1332543989650.0503,0.10236679194446274,0.6976449169376011,0.10176767027279132,-0.7017520581126749,-0.10135387950854283,-0.029807355598878302,26.44961061060501
29.6,-104.28491937475209,25.973963843187175,293.0253025614475,312.1118696043994,0,8.291445561402941,221.40315333108774,11.026743674359638,19.767510085381584,-0.01012966397667,-0.002977568995490245,1.8267563869076493,1.8598635552753229,0.05096142851712887,0.015400940121779812,-8.929157102206307,9.849791407564929,408889229784.175,0.0,1332543989650.0503,0.10102523620474357,0.6978691610162284,0.10044302161980787,-0.7019143360554506,0.05096142851712887,0.015400940121779812,-8.929157102206307
29.7,-104.28693942070228,25.97338012436872,293.23163560289436,312.30621884165356,0,8.273820013931235,221.28470798768143,11.026692091099276,19.77438785342981,-0.02020045950189385,-0.005837188184543276,2.06333041446844,2.3852235652288427,-0.10070795525224063,-0.02859619189053092,2.365740275607959,14.315627097600593,408889229784.175,0.0,1332543989650.0503,0.09963102511639924,0.6965477749592096,0.0986208818618524,-0.7036822988355045,-0.10070795525224063,-0.02859619189053092,2.365740275607959
29.9,-104.28895370525831,25.972807193373285,293.39737397806874,312.4624643627909,0,8.235999163953377,221.04231803929207,11.026650656505483,19.779912465935624,-0.010071422780129105,-0.002864654977177149,0.8286918758719283,2.054121624627652,0.050645183608823904,0.014862666036830686,-6.173192692982581,10.663008273870847,408889229784.175,0.0,1332543989650.0503,0.09827698142400156,0.6958918167311468,0.09704305147354404,-0.7047402787477905,0.050645183608823904,0.014862666036830686,-6.173192692982581
30.0,-104.29096153399561,25.972243512807527,293.7568164588709,312.8006222928987,0,8.219808180708444,220.91838420715567,11.026560795885281,19.791893881962363,-0.020078287373052887,-0.005636805657580544,3.5944248080215346,2.021809163104912,-0.1000686459292364,-0.027721506804033555,27.65732932149567,9.461541478800616,408889229784.175,0.0,1332543989650.0503,0.09674384260566334,0.6984609506036955,0.09618417194798085,-0.7025251130503122,-0.1000686459292364,-0.027721506804033555,27.65732932149567
30.2,-104.29296304261494,25.971690615042167,294.1482390194317,313.16886398849493,0,8.184068900255577,220.6650663675043,11.02646294024514,19.804941300647723,-0.010007543096648454,-0.0027644888267985934,1.9571128028039266,1.9360015086428248,0.05035372138202235,0.014361584153909803,-8.186560026088069,9.049584177582336,408889229784.175,0.0,1332543989650.0503,0.09525290645219184,0.6988348938998957,0.09474893629230578,-0.7025520008880539,0.05035372138202235,0.014361584153909803,-8.186560026088069
30.3,-104.29495918694344,25.97114992221166,294.31474863610697,313.32588530924636,0,8.165869863734368,220.53569361851822,11.026421312840974,19.810491621203564,-0.019961443285012308,-0.005406928305084969,1.6650961667528226,2.0434142654749894,-0.09953900188363712,-0.02642439478286338,-2.9201663605109993,8.083585860275534,408889229784.175,0.0,1332543989650.0503,0.09382721699755266,0.6965650252589087,0.09266910428020446,-0.7052702007375999,-0.09953900188363712,-0.02642439478286338,-2.9201663605109993
30.4,-104.29694937293557,25.97062003621398,294.4781755874701,313.48001954014705,0,8.147617728507905,220.40451928982168,11.026380456103132,19.815939186249004,-0.019901859921276778,-0.00529885997679014,1.6342695136313872,1.444328990506097,0.0005958336373553102,0.0010806832829483135,-0.30826653121436054,4.086361278893927,408889229784.175,0.0,1332543989650.0503,0.09231600644175758,0.6966988749023386,0.09115996307624893,-0.7055340486442861,0.0005958336373553102,0.0010806832829483135,-0.30826653121436054
30.6,-104.29893259667412,25.97009962871031,294.7513322543057,313.7372487946224,0,8.110517626063595,220.13678929290208,11.026312166936423,19.825044408476856,-0.009916118692743085,-0.0026020375183399467,1.3657833341778576,1.165274317691455,0.049928706142667756,0.013484112292250773,-1.3424308972676289,2.4856426089969115,408889229784.175,0.0,1332543989650.0503,0.0908188141880504,0.6986571767381256,0.09013966935136675,-0.7039211123350502,0.049928706142667756,0.013484112292250773,-1.3424308972676289
30.7,-104.30091076437112,25.96959128112484,294.81120331960204,313.794112851624,0,8.091175055477708,220.00024552374597,11.026297199170099,19.827040110653403,-0.019781676970041386,-0.005083475854732564,0.5987106529636449,0.8434171827536012,-0.09865558277298511,-0.0248143833639267,-7.6707268121422905,2.408015407331037,408889229784.175,0.0,1332543989650.0503,0.09019660031759417,0.6894591695010723,0.08717210300551956,-0.7133804394147872,-0.09865558277298511,-0.0248143833639267,-7.6707268121422905
30.91,-104.30288193236889,25.969093524644453,294.92917786854395,313.90556694028965,0,8.050433925457158,219.70772426727808,11.026267705532863,19.83097259561813,-0.009386514275076571,-0.00237026895421519,0.561783566390007,0.5641356520490779,0.04950077473792749,0.01292003285960649,-0.1758432693982748,2.7111575790580624,408889229784.175,0.0,1332543989650.0503,0.08797611558314371,0.6956344116221758,0.08647309454163561,-0.7077254922456616,0.04950077473792749,0.01292003285960649,-0.1758432693982748
31.11,-104.30484808714091,25.96860723021851,294.9401807885052,313.9165177869986,0,8.010577571516478,219.42189622015724,11.026264954802873,19.83133935961684,-0.009830773860102261,-0.0024314721297180684,0.055014599806213677,0.34125622053668964,-0.002221297925128458,-0.00030601587751439316,-2.5338448329189758,2.472406675834475,7.016229155756389,0.0,0.5876519323119107,0.09293397062442785,0.6352107233401034,0.0773882407475502,-0.7628116899023768,-0.002221297925128458,-0.00030601587751439316,-2.5338448329189758
31.21,-104.30680652529283,25.968131818558636,294.9638944690409,313.9394094375448,0,7.990821341109457,219.27635088452203,11.02625902638274,19.832129815634694,-0.01958438151916625,-0.004754116598739632,0.23713680535706436,0.2810503858399742,-0.0975360765906385,-0.023226444690215304,1.8212220555084808,0.9871318873431948,6.366107561656918,0.0,0.5877310744624703,0.0874819972440357,0.671715560212113,0.080362660562968,-0.7312229134226874,-0.0975360765906385,-0.023226444690215304,1.8212220555084808
31.3,-104.30876036356344,25.967667810138412,294.9864334018795,313.9611968878359,0,7.973049121891111,219.1438674006834,11.02625339164953,19.832881113395985,-0.021709314117875574,-0.0051556491135961125,0.25043258709539906,0.23256882113485694,-0.023610362207881423,-0.0044614723872942385,0.14773090820371917,0.9969134478614133,6.366107561656918,0.0,0.5877310744624703,0.08582221206918247,0.6704192296298845,0.07851557690943782,-0.7328082345611318,-0.023610362207881423,-0.0044614723872942385,0.14773090820371917
31.5,-104.31070562882556,25.967214895193223,295.04600588091466,314.01777838918196,0,7.933645564074849,218.8444214991993,11.026238498529771,19.834866862697154,-0.00972632631061291,-0.0022645747259453313,0.2978623951759129,0.3983322837522212,0.05991493903631353,0.014455371938253957,0.23714904040257,1.0560953360131058,6.366107561656918,0.0,0.5877310744624703,0.08204144537660649,0.6906167469885621,0.07933692679875812,-0.7141591993845505,0.05991493903631353,0.014455371938253957,0.23714904040257
31.6,-104.31264679808712,25.96677295371998,295.077889702197,314.04834432098903,0,7.913966283155863,218.6921055835275,11.02623052757445,19.8359296567399,-0.019411692615562692,-0.004419414732446052,0.3188382128234889,0.372884272148154,-0.09685366304949644,-0.021548400065006898,0.20975817647575704,1.6863121624570858,6.366107561656918,0.0,0.5877310744624703,0.08140227688903955,0.6804348238026836,0.07647801018583772,-0.7242466664278862,-0.09685366304949644,-0.021548400065006898,0.20975817647575704
31.8,-104.31457992849185,25.966342145476915,295.2548298639261,314.21520820617457,0,7.87575248962879,218.38232166987942,11.026186292534017,19.841827662130868,-0.009665652023684891,-0.00215404121531649,0.8847008086453942,0.3568349155768459,0.04873020295938918,0.011326867585647849,2.829312979109537,2.217435040462925,6.366107561656918,0.0,0.5877310744624703,0.0778009560485871,0.6989167949797658,0.07693497665756481,-0.7067837960082546,0.04873020295938918,0.011326867585647849,2.829312979109537
32.0,-104.31650648732062,25.96592335998337,295.23276746644075,314.19508221413844,0,7.835579387809247,218.06571433346755,11.02619180813339,19.84109224888136,-0.009632794143854574,-0.0020939274677189775,-0.11031198742671261,0.3095557370538028,0.0001642893991515854,0.00030056873798756426,-4.975063980360552,2.625410677473814,6.366107561656918,0.0,0.5877310744624703,0.0788217754698202,-0.6710430916308896,-0.07209216312130906,-0.7336831856480924,0.0001642893991515854,0.00030056873798756426,-4.975063980360552
32.1,-104.31842919199202,25.96551438651959,295.24977201221134,314.2116650917085,0,7.815789707880017,217.90486942364905,11.026187556996947,19.84165906707371,-0.019227046714007382,-0.004089734637808759,0.17004545770589388,0.2567846073995469,-0.09594252570152671,-0.019958071700897535,2.8035744513260252,2.687323298215561,6.366107561656918,0.0,0.5877310744624703,0.0780949313642163,0.6616193497346169,0.06958725590364269,-0.7425083377092557,-0.09594252570152671,-0.019958071700897535,2.8035744513260252
32.2,-104.32034510006345,25.965116424126485,295.24392750582984,314.2067765051901,0,7.795785208116568,217.74233985920674,11.026189018123542,19.841464250194328,-0.01915908071424583,-0.0039796239310518336,-0.058445063814928366,0.1368197595648642,0.0006796599976155005,0.0011011070675692406,-2.28490521520819,2.4788198087176436,6.366107561656918,0.0,0.5877310744624703,0.08296679703646911,-0.5811109511514759,-0.05971535268324629,-0.8073788761760192,0.0006796599976155005,0.0011011070675692406,-2.28490521520819
32.41,-104.3222535492321,25.964730281605497,295.25544075400126,314.2181966389381,0,7.754066994823455,217.39557644805382,11.0261861398115,19.841848025133373,-0.009087853184060924,-0.001838773909465177,0.05482499129243642,0.24999598121088523,0.047958226334215266,0.010194523912317717,0.5393812147969913,2.2672347184986466,6.366107561656918,0.0,0.5877310744624703,0.07611425546847188,0.6422510990133035,0.06432262418321245,-0.7599886485657988,0.047958226334215266,0.010194523912317717,0.5393812147969913
32.6,-104.32415729733574,25.964354307518324,295.20133846553375,314.16796100533264,0,7.715751672871702,217.07552064172225,11.026199665383617,19.84004461551779,-0.010019726861281143,-0.001978810985124175,-0.2847488866710687,0.21969472647948113,-0.004904598301158922,-0.0007370372403104978,-1.7872309366499812,3.050733158823264,6.366107561656918,0.0,0.5877310744624703,0.07005022093017192,-0.6910212027194238,-0.06758273291851939,-0.7162508206983773,-0.004904598301158922,-0.0007370372403104978,-1.7872309366499812
32.7,-104.32605341235384,25.963990030186817,295.1337027513293,314.10500903136665,0,7.6952274989805325,216.90467764296184,11.026216574312167,19.837790091710975,-0.018961150180984716,-0.003642773315064522,-0.6763571420446982,0.24326041448523622,-0.08941423319703445,-0.016639623299403234,-3.91608255373624,2.769146060300974,6.366107561656918,0.0,0.5877310744624703,0.06795483770270351,-0.6938088599220104,-0.06604262111472253,-0.713897596383975,-0.08941423319703445,-0.016639623299403234,-3.91608255373624
32.8,-104.32794495240829,25.963635927692714,295.13329482437376,314.10522472965846,0,7.675401213701284,216.732194442381,11.026216676293906,19.837776494145793,-0.018915400544444703,-0.003541024941036343,-0.004079269555177466,0.2652427471746056,0.0004574963654001545,0.001017483740281849,6.72277872489559,3.005271654833016,6.366107561656918,0.0,0.5877310744624703,0.0918951687813604,-0.10380635885238526,-0.009632776608821971,-0.9902962826504297,0.0004574963654001545,0.001017483740281849,6.72277872489559
33.0,-104.32982958576451,25.963294817877525,295.0974534997271,314.0721462995697,0,7.635483146710776,216.38233817188154,11.026225636625067,19.836581783324235,-0.00942316678113273,-0.0017055490759432003,-0.17920662323319647,0.23803090047740433,0.04746116881655919,0.009177379325465583,-0.8756367683900826,2.6877503389490416,6.366107561656918,0.0,0.5877310744624703,0.06488648191129101,-0.6852268643729809,-0.06151171668024341,-0.722820999638083,0.04746116881655919,0.009177379325465583,-0.8756367683900826
33.2,-104.33170869083226,25.96296337834233,295.1305014945133,314.10379465733416,0,7.596380165263412,216.02601402597276,11.026217374626372,19.837683383150445,-0.00939552533871777,-0.0016571976759749182,0.1652399739307929,0.16015710286417154,0.0001382072120748015,0.00024175699984140705,1.7222329858199226,2.0440998589861694,6.366107561656918,0.0,0.5877310744624703,0.0633988959193381,0.683811310602841,0.05984398357697806,-0.724431756011201,0.0001382072120748015,0.00024175699984140705,1.7222329858199226
33.3,-104.33358116616655,25.962645756447607,295.14526712790916,314.1182641006993,0,7.576863344193286,215.8454462506239,11.026213683218023,19.838175570930304,-0.018724753342952382,-0.0031762189472319263,0.14765633395882943,0.22093225551173487,-0.09329228004235143,-0.015190212712570945,-0.17583639971964465,0.7664392415856895,6.366107561656918,0.0,0.5877310744624703,0.06300810891102847,0.65813488730685,0.05542279314183872,-0.7482090365141366,-0.09329228004235143,-0.015190212712570945,-0.17583639971964465
33.5,-104.33544724046865,25.9623367893131,295.20268872113536,314.1728121760664,0,7.538222943864554,215.4795394208042,11.026199327819716,19.840089624037844,-0.009330371510500736,-0.001544835672540024,0.28710796613097095,0.3412418583963558,0.04697190916225756,0.008156916373459396,0.6972581608606977,3.0440074168078417,6.366107561656918,0.0,0.5877310744624703,0.05889287234678364,0.6930306976781295,0.0569848712024684,-0.7162351611841941,0.04697190916225756,0.008156916373459396,0.6972581608606977
33.61,-104.33730673258687,25.9620419138176,295.23822909744433,314.2067999218664,0,7.517079859648817,215.27559793865814,11.026190442725639,19.841274303248145,-0.01690447380194767,-0.002680686322714185,0.32309433008157035,0.45966164068445226,-0.06885547537679068,-0.010325915001583336,0.32714876318726893,4.237892810349759,6.366107561656918,0.0,0.5877310744624703,0.05699594108344645,0.6860231890975353,0.05405653686339185,-0.7233267156291106,-0.06885547537679068,-0.010325915001583336,0.32714876318726893
33.7,-104.33915967151763,25.961754826598888,295.1679631821102,314.14136856471237,0,7.498826588273335,215.10732521075317,11.026208009204472,19.83893210607034,-0.02058821034185836,-0.0031898579856932206,-0.7807323926012898,0.5403539438816395,-0.0409304059990061,-0.005657462921989069,-12.264741363142427,5.5077792388738605,-175215185461662.84,0.0,-188063736163.28644,0.0550119742650181,-0.695552431095051,-0.05356356206196332,-0.7143608633628129,-0.0409304059990061,-0.005657462921989069,-12.264741363142427
33.9,-104.34100615640621,25.96148259405349,295.31947450241734,314.2843237652754,0,7.4614737364549,214.72886979090566,11.026170131374395,19.84398248341391,-0.009232424442871175,-0.0013611627269938544,0.7575566015356278,0.7256892786348732,0.05677892949493714,0.009143476293497026,7.691444970684752,6.69121672149637,-87679021989262.36,0.0,-556269449968.1713,0.05202385537351335,0.7008569230352398,0.05138692864029192,-0.7095438502802833,0.05677892949493714,0.009143476293497026,7.691444970684752
34.1,-104.34284596654763,25.96121762233661,295.20902328764936,314.18112889745765,0,7.421697941132948,214.3442404412284,11.026197744178088,19.840300776254978,-0.009199050707095905,-0.0013248585844038796,-0.5522560738398773,0.7850462080705999,0.00016686867887634918,0.00018152071294987138,-6.549063376877432,8.45840788533746,-87679021989262.36,0.0,-556269449968.1713,0.05095169270657561,-0.6993400420094243,-0.05010143700156789,-0.7112083215647642,0.00016686867887634918,0.00018152071294987138,-6.549063376877432
34.2,-104.34468027138779,25.96096718736194,295.08764336907757,314.06767007662114,0,7.401227093044527,214.14963186814148,11.02622808915773,19.836254778969252,-0.018343048401589807,-0.0025043497466725384,-1.2137991857178858,1.1380862198355726,-0.09143997694493773,-0.01179491162268642,-6.615431118779991,12.33828765176376,-87679021989262.36,0.0,-556269449968.1713,0.04830087412611363,-0.7000798932120679,-0.04756979305209854,-0.710839140360049,-0.09143997694493773,-0.01179491162268642,-6.615431118779991
34.4,-104.34650778052412,25.960728344801584,295.2116960799496,314.18481599941157,0,7.364120335968361,213.75587017127594,11.026197075980011,19.840389869331652,-0.009137545681667997,-0.001194212801785025,0.6202635543601919,1.0638414677971326,0.046027513599610034,0.006550684724437707,9.170313700390585,16.131188743585447,-87679021989262.36,0.0,-556269449968.1713,0.04625397101229772,0.7003538574515535,0.04557188051637285,-0.7108363019883859,0.046027513599610034,0.006550684724437707,9.170313700390585
34.5,-104.34832820370656,25.960496410085877,294.95708165547705,313.94617530953025,0,7.342487791137911,213.5567345479524,11.02626072958613,19.831902721849236,-0.018204231824369994,-0.0023193471570692407,-2.5461442447254607,1.198001162466145,-0.09066686142701869,-0.011251343552841998,-31.66407799085608,16.5152117441296,-87679021989262.36,0.0,-556269449968.1713,0.04493488909404956,-0.7031401609651977,-0.04461218707763822,-0.70822632155554,-0.09066686142701869,-0.011251343552841998,-31.66407799085608
34.61,-104.35014119083844,25.9602757584033,294.9995453328247,313.98665517912315,0,7.321987578074132,213.33596313235807,11.026250113666794,19.833318177760823,-0.016481701198953036,-0.002005924387078887,0.3860334304332292,1.000038604032828,0.015659369321972424,0.002849297909003232,26.656160683260957,18.085027539160436,-87679021989262.36,0.0,-556269449968.1713,0.04370261036505098,0.6904797567349988,0.04186336196505319,-0.7208156812330323,0.015659369321972424,0.002849297909003232,26.656160683260957
34.8,-104.3519511219774,25.96006907470037,294.76715725109733,313.76891478159513,0,7.283701196069506,212.95041498136132,11.026308210687226,19.82557190836991,-0.009525953362897799,-0.001087808962776512,-1.2230951669862193,0.9701304806165043,0.036609199137133265,0.004832186443696767,-8.469097881155093,16.945100517684846,-1427445130994.1255,0.0,148535706467.37885,0.04033513884212661,-0.7031920055305475,-0.040020190313191366,-0.7087259444240832,0.036609199137133265,0.004832186443696767,-8.469097881155093
34.9,-104.35375079733616,25.959870143681503,294.78949675132793,313.7904835367869,0,7.265092411759639,212.74536750193124,11.026302625812168,19.8263165583776,-0.017996753587681012,-0.001989310188683618,0.2233950023060029,0.4866340531865173,-0.08470800224783093,-0.009015012259070932,14.464901692922018,10.954549412261837,-2854890262149.78,0.0,297071412935.0918,0.04044402296156928,0.6769164061441091,0.03729862443639552,-0.7340008669714092,-0.08470800224783093,-0.009015012259070932,14.464901692922018
35.1,-104.35554642728357,25.959686179808926,294.69535577646496,313.7026268505069,0,7.226693358820713,212.33091568811068,11.026326161055884,19.823178525882167,-0.008978149737046564,-0.0009198193628812003,-0.4707048743148267,0.43145033654276127,0.0450930192531716,0.005347454129012012,-3.470499383104099,6.0985105709575285,-2854890262149.78,0.0,297071412935.0918,0.036424434260466515,-0.69938408106014,-0.03573273853629831,-0.7129223934939656,0.0450930192531716,0.005347454129012012,-3.470499383104099
35.3,-104.35733576234533,25.95951239730259,294.6696729713604,313.6790811966413,0,7.189266982055608,211.91071624109645,11.02633258175716,19.822322432378677,-0.008946675308792087,-0.0008689125316863241,-0.12841402552283218,0.2178604610257911,0.00015737214127238888,0.00025453415597438667,1.7114542439600093,4.931029656278146,-2854890262149.78,0.0,297071412935.0918,0.03539131368260111,-0.6811734080618903,-0.03300057846476075,-0.7305211871576076,0.00015737214127238888,0.00025453415597438667,1.7114542439600093
35.4,-104.35911482320493,25.959346030140054,294.6805746827561,313.689900360778,0,7.170903910944101,211.69848445965792,11.02632985632931,19.822685822758537,-0.01779060859604417,-0.0016636716253515024,0.10901711395717784,0.18810191807840299,-0.08843933287251955,-0.00794759093665167,2.3743113948000665,2.1178484450989328,-2854890262149.78,0.0,297071412935.0918,0.035519648538226735,0.6466971996685091,0.030171814229368283,-0.7613217113249415,-0.08843933287251955,-0.00794759093665167,2.3743113948000665
35.5,-104.36088708070452,25.959190782056414,294.66515865927164,313.67599536149476,0,7.152355252020797,211.48484386190574,11.026333710335182,19.822171955309056,-0.017722574995815168,-0.0015524808364020038,-0.15416023484476463,0.10106578927371339,0.0006803360022899955,0.0011119078894949697,-2.631773488019387,1.4640015459148077,-2854890262149.78,0.0,297071412935.0918,0.03260443442241241,-0.6647066323678907,-0.02905819802311464,-0.7458268330314898,0.0006803360022899955,0.0011119078894949697,-2.631773488019387
35.7,-104.36265591584572,25.959048776544208,294.6501965513905,313.6625168727772,0,7.115656751971413,211.05337426006213,11.026337450862153,19.821673218379683,-0.008844175706030785,-0.0007100275610305472,-0.07481053940580189,0.1715145683642046,0.044391996448921285,0.0042122663768572235,0.39674847719480805,1.9331035832696337,-2854890262149.78,0.0,297071412935.0918,0.029936680753132505,-0.6636299417893711,-0.02659596356866375,-0.7469884538786227,0.044391996448921285,0.0042122663768572235,0.39674847719480805
