time,position_x,position_y,position_z,ground_station_distance,comm_range_status,wind_speed,wind_angle,battery_voltage,battery_current,velocity_x,velocity_y,velocity_z,velocity_total,acceleration_x,acceleration_y,acceleration_z,acceleration_total,angular_x,angular_y,angular_z,orientation_w,orientation_x,orientation_y,orientation_z,linear_acceleration_x,linear_acceleration_y,linear_acceleration_z
0.0,-98.43086894572888,14.766705523817455,269.3324017,287.1352192938521,0,7.693324017,180.0,11.032666899575,18.977746723333333,0.004517258821650216,0.010856996263788332,0.012359152323995204,0.030657885300561315,0.04620426214145826,0.10898311990841242,0.2606566705736669,0.24250326826552956,2272461315862198.0,0.0,-11481287453476.0,0.7645659027319718,-0.21871366205747952,0.32788950874627615,0.5099919454885316,0.04620426214145826,0.10898311990841242,0.2606566705736669
0.2,-98.42996549396454,14.768876923070213,269.3348735304648,287.1373398434681,0,7.733346068691314,180.59998222238025,11.032666281617383,18.97782911768216,0.004517258821650216,0.010856996263788332,0.012359152323995204,0.030657885300561315,0.04620426214145826,0.10898311990841242,0.2606566705736669,0.24250326826552956,2272461315862198.0,0.0,-11481287453476.0,0.7645659027319718,-0.21871366205747952,0.32788950874627615,0.5099919454885316,0.04620426214145826,0.10898311990841242,0.2606566705736669
0.3,-98.42905172546097,14.771052453895676,269.3387160124029,287.14074276803535,0,7.753378160529021,180.89994000119998,11.032665320996898,18.97795720041343,0.009137685035796041,0.021755308254629572,0.03842481938136189,0.030657885300561315,0.04620426214145826,0.10898311990841242,0.2606566705736669,0.24250326826552956,2272461315862198.0,0.0,-11481287453476.0,0.7268415738634602,-0.2702309824932907,0.4066027231709087,0.4830639379154693,0.04620426214145826,0.10898311990841242,0.2606566705736669
0.5,-98.4281279303689,14.773232108319412,269.3430996973098,287.14465014929027,0,7.793389335514455,181.4997222376539,11.032664225075672,18.97810332324366,0.0046189754603176425,0.010898272118682328,0.0219184245344195,0.030657885300561315,-0.02259354787739199,-0.054285180679736214,-0.08253197423471195,0.24250326826552956,2272461315862198.0,0.0,-11481287453476.0,0.7160344414031162,-0.28285459659190315,0.42709165586453907,0.4742158510659943,-0.02259354787739199,-0.054285180679736214,-0.08253197423471195
0.6,-98.42719387906291,14.77541582827604,269.3474454367244,287.1485186642869,0,7.813402467326133,181.79952003839853,11.03266313864082,18.978248181224146,0.009340513059896695,0.021837199566281388,0.043457394145889346,0.03799982224532383,0.04721537599579054,0.10938927447599062,0.2153896961146985,0.24250326826552956,2272461315862198.0,0.0,-11481287453476.0,0.7178885447146943,-0.2809598057892677,0.4257586232040416,0.47373750080152427,0.04721537599579054,0.10938927447599062,0.2153896961146985
0.81,-98.42624984214088,14.777603615610309,269.35001968225174,287.15072232093905,0,7.855323107926513,182.42881919217493,11.032662495079437,18.97833398940839,0.004495413914455746,0.010418034925086498,0.012258312034960212,0.031419027810622516,-0.02307190069257594,-0.054376974481880405,-0.14856705767109105,0.2363066788249366,2272461315862198.0,0.0,-11481287453476.0,0.7656056450088269,-0.22002768261291308,0.33458043128845694,0.5034796423028834,-0.02307190069257594,-0.054376974481880405,-0.14856705767109105
0.9,-98.4252956004235,14.77979534207815,269.35422728558433,287.154454816565,0,7.873299371251866,182.698380291575,11.032661443178604,18.978474242852812,0.010602685748671728,0.02435251630935733,0.04675114813987119,0.03178033699474888,0.06785857593573316,0.1548275709363426,0.383253734499011,0.25271174547493247,2272461315862198.0,0.0,-11481287453476.0,0.7229022645840185,-0.2756930303485361,0.4207220597666797,0.47370731185218284,0.06785857593573316,0.1548275709363426,0.383253734499011
1.1,-98.42433140495386,14.781991029347752,269.3537903985242,287.1538275443251,0,7.913094505659592,183.29704301743396,11.032661552400368,18.97845967995081,0.004820977348174436,0.0109784363480081,-0.0021844353005917574,0.027007743158464027,-0.028908542002486447,-0.06687039980674613,-0.24467791720231466,0.21977170997250553,2348689515819547.0,0.0,-5832022006254.731,0.8338825366198738,0.049199724214952986,-0.07533963853715378,0.5445578400157952,-0.028908542002486447,-0.06687039980674613,-0.24467791720231466
1.2,-98.42335715699699,14.784190599000635,269.35495257300516,287.15469698635826,0,7.93297394030789,183.59616122861277,11.032661261856749,18.97849841910017,0.009742479568757302,0.021995696528822634,0.01162174480953128,0.028850817551211806,0.04921502220582872,0.11017260180814549,0.13806180110123056,0.2239400719697051,2348689515819547.0,0.0,-5832022006254.731,0.8170171119684531,-0.12170138025727177,0.18700982026826096,0.5316945927103602,0.04921502220582872,0.11017260180814549,0.13806180110123056
1.4,-98.42237278803935,14.786393972532682,269.359482061114,287.1587217692863,0,7.972681049899613,184.19390487759242,11.032660129484722,18.978649402037135,0.00492184478815716,0.011016867660238462,0.022647440544290024,0.02116605056155198,-0.024103173903000714,-0.05489414434292087,0.05512847867379373,0.15223129316735967,2348689515819547.0,0.0,-5832022006254.731,0.7193598299970431,-0.2800385105505331,0.4318231624330927,0.46650683165581536,-0.024103173903000714,-0.05489414434292087,0.05512847867379373
1.5,-98.42137855978845,14.788601161355247,269.3604082151129,287.1593634129507,0,7.992480347098327,184.49250374910727,11.032659897946221,18.978680273837096,0.009942282509030056,0.02207188822564985,0.009261539988756331,0.027696059511172055,0.05020437720872892,0.11055020565411379,-0.1338590055553368,0.16274800700976494,2348689515819547.0,0.0,-5832022006254.731,0.8258747209384821,-0.09862238143362313,0.15259055848882247,0.5337796292995964,0.05020437720872892,0.11055020565411379,-0.1338590055553368
1.7,-98.42037433417221,14.790812076796204,269.3622850874611,287.1608936354467,0,8.031987549008603,185.08908923171782,11.032659428728135,18.978742836248703,0.0050211280812106915,0.011054577204783202,0.00938436174095614,0.025402509510951642,-0.02460577213909683,-0.05508655510433326,0.0006141087609990403,0.15707070861831815,2348689515819547.0,0.0,-5832022006254.731,0.7956084069718896,-0.17495950997646004,0.27163051934351107,0.5124580895894058,-0.02460577213909683,-0.05508655510433326,0.0006141087609990403
1.8,-98.41936003333862,14.793026660101027,269.3660495308367,287.16419119902037,0,8.051719642160014,185.38704932800138,11.03265848761729,18.978868317694555,0.010143008335887762,0.0221458330482349,0.03764443375587231,0.029312250207310143,0.051218802546770664,0.11091255843451688,0.28260072014916143,0.203526415637739,2348689515819547.0,0.0,-5832022006254.731,0.7392358050341936,-0.2581441211259049,0.4021644269992159,0.47450585975304266,0.051218802546770664,0.11091255843451688,0.28260072014916143
2.0,-98.41833588965521,14.795244902433867,269.3678748981585,287.16566671202526,0,8.091017410571707,185.98223801800413,11.03265803127546,18.97892916327195,0.005120718417046533,0.011091211664195912,0.009126836609141266,0.027159795030328927,-0.02511144959420615,-0.05527310692019495,-0.14258798573365525,0.19896256425013537,2348689515819547.0,0.0,-5832022006254.731,0.7993885338804088,-0.16994113312672654,0.2656394930432865,0.5114036007967099,-0.02511144959420615,-0.05527310692019495,-0.14258798573365525
2.1,-98.41730174570854,14.797466724878637,269.3716740426079,287.1689904584002,0,8.110636540118279,186.27944015899064,11.032657081489347,18.979055801420262,0.010341439466685634,0.02221822444770536,0.03799144449374122,0.03318788243223135,0.05220721049639096,0.11127012783509439,0.2886460788459993,0.2506003085706111,2348689515819547.0,0.0,-5832022006254.731,0.7404038947363236,-0.2572415327400204,0.4034739836673373,0.47205678789363603,0.05220721049639096,0.11127012783509439,0.2886460788459993
2.3,-98.4162578143037,14.799692088440068,269.37344801765045,287.1704114023622,0,8.149689527246881,186.87299398884537,11.032656637995586,18.979114933921682,0.005219657024184705,0.011126817807154426,0.008869875212838009,0.027014418870389512,-0.025608912212504675,-0.055457033202754746,-0.14560784640451624,0.22073755692729372,2348689515819547.0,0.0,-5832022006254.731,0.8031124316050533,-0.16492474392291734,0.2595370334965535,0.510343785390973,-0.025608912212504675,-0.055457033202754746,-0.14560784640451624
2.4,-98.41520392846381,14.801920934044805,269.3772704770579,287.17375067594327,0,8.169177957624848,187.16931929764107,11.032655682380735,18.979242349235264,0.010538858398945186,0.022288456047370155,0.038224594074449635,0.02977177961154172,0.05319201374760476,0.1116163824021572,0.293547188616116,0.22499946037325275,2348689515819547.0,0.0,-5832022006254.731,0.7418191765297957,-0.2560311926368598,0.4042715834475714,0.469805092082234,0.05319201374760476,0.1116163824021572,0.293547188616116
2.61,-98.41414026142955,14.80415322254249,269.37884927492956,287.17498218458735,0,8.209882119087215,187.79054958741378,11.032655287681267,18.97929497583099,0.005065081115519987,0.010629945227073957,0.007518085103204917,0.02621044818183634,-0.02606560611154857,-0.055516718191886666,-0.14622147129164154,0.18374184461873225,2348689515819547.0,0.0,-5832022006254.731,0.8117213665380258,-0.14962389203915727,0.23703597938983603,0.5123817507595246,-0.02606560611154857,-0.055516718191886666,-0.14622147129164154
2.7,-98.41306677665861,14.806388914706844,269.37967286571427,287.17550212077606,0,8.227259602034804,188.0563308041621,11.03265508178357,18.97932242885714,0.011927608566016525,0.02484102404836829,0.009151008718946358,0.029623370038812453,0.07625030500551683,0.1579008757921587,0.018143595730460396,0.17844225180400408,0.34443862250082447,0.0,0.1184395919509484,0.8355645571010949,-0.08500477738677605,0.1351116847309795,0.525690870557053,0.07625030500551683,0.1579008757921587,0.018143595730460396
2.9,-98.41198344782514,14.808627941236743,269.38455660423193,287.1798274330835,0,8.26575001625199,188.64590342175129,11.032653860848942,18.979485220141065,0.005416644167368652,0.011195132649497468,0.024418692588312783,0.023906705295261857,-0.032554821993239405,-0.06822945699435419,0.07633841934683222,0.1295061554192139,7.134280165183766,0.0,-0.12094735988249568,0.7223294471128388,-0.27761836935188694,0.44272909641979274,0.4529449834310716,-0.032554821993239405,-0.06822945699435419,0.07633841934683222
3.0,-98.4108903988193,14.810870272757324,269.3865960456952,287.18148156942755,0,8.28490637377963,188.94011988577776,11.032653350988577,18.979553201523174,0.010930490058314025,0.022423315205806184,0.020394414632960416,0.031677594373571316,0.05513845890945368,0.11228182556308706,-0.04024277955352363,0.17901642658122305,26.093863605287957,0.0,-0.11806500843893844,0.7986864006884918,-0.17808954833811627,0.28493327019562364,0.4991965321029538,0.05513845890945368,0.11228182556308706,-0.04024277955352363
3.21,-98.40978759374676,14.813115859821055,269.38911404573116,287.1835814632633,0,8.324922417642766,189.55666554280648,11.032652721488567,18.979637134857704,0.0052514527264217285,0.010693271732053505,0.011990476361591262,0.03098034756625223,-0.027043034913772843,-0.055857349875012764,-0.040018753673186455,0.17107662861264364,13.078882089973158,0.0,0.11811342557743672,0.7836321397402675,-0.20314006696063286,0.3260764688079353,0.48818942967977824,-0.027043034913772843,-0.055857349875012764,-0.040018753673186455
3.3,-98.40867500692796,14.815364622908834,269.39315236040255,287.1871043139019,0,8.342017580393762,189.82033303863912,11.0326517119099,18.979771745346753,0.012362075764353166,0.024986256530882676,0.04487016301545238,0.03559366885569726,0.07900692264368277,0.15881094220921327,0.36532985170956855,0.1994338453265061,7181832918193.828,0.0,-2589264305431.501,0.7424951504842541,-0.2563415270721464,0.4128260429011192,0.46104732003156496,0.07900692264368277,0.15881094220921327,0.36532985170956855
3.5,-98.4075527728979,14.817616522431086,269.39759994622955,287.19100797021,0,8.379771614373198,190.40498125354344,11.032650600013442,18.97991999820765,0.0056111701503169745,0.011259497611257874,0.02223792913497389,0.034437861639797646,-0.03375452807018093,-0.06863379459812395,-0.11316116940239235,0.19719769967804895,7181832918193.828,0.0,-2589264305431.501,0.7345119699067997,-0.2651435535311072,0.4283783865136542,0.45462404253678423,-0.03375452807018093,-0.06863379459812395,-0.11316116940239235
3.6,-98.40642080640527,14.819871528728845,269.4019709602113,287.1948366619809,0,8.398568176152292,190.69661818922106,11.032649507259947,18.980065698673712,0.011319664926361373,0.02255006297758653,0.04371013981767642,0.04142274683675854,0.057084947760443934,0.11290565366328643,0.21472210682702514,0.2332071693172196,7181832918193.828,0.0,-2589264305431.501,0.7370293461122823,-0.26254590074794193,0.4255606151871726,0.45470381103666685,0.057084947760443934,0.11290565366328643,0.21472210682702514
3.8,-98.40527925241214,14.82212958207486,269.4066148598472,287.19891824367147,0,8.435907087424438,191.2784529096354,11.032648346285038,18.98022049532824,0.0057077699656105174,0.011290266730075176,0.023219498179400975,0.036278137173973116,-0.028059474803754317,-0.05629898123755684,-0.10245320819137738,0.1755947009983056,7181832918193.828,0.0,-2589264305431.501,0.7323707585667396,-0.2675106549528232,0.4349920903455016,0.4503920545701723,-0.028059474803754317,-0.05629898123755684,-0.10245320819137738
3.9,-98.40412802609335,14.824390632674683,269.4111340031583,287.20287967754365,0,8.454488170277905,191.56862483514698,11.03264721649921,18.98037113343861,0.011512263187967154,0.02261050599823731,0.04519143311085823,0.040724438619770764,0.05804493222356631,0.11320239268162123,0.21971934931457235,0.1962336297291603,7181832918193.828,0.0,-2589264305431.501,0.7357684472440595,-0.26402507210349835,0.4307077471744789,0.4510281475303878,0.05804493222356631,0.11320239268162123,0.21971934931457235
4.11,-98.40296726283582,14.826654630667775,269.4162250487086,287.2073745104123,0,8.493214749186563,192.17629692654444,11.032645943737823,18.980540834956955,0.0055274440834788535,0.010780942824246877,0.024243074049189996,0.037749006219716504,-0.028499138592801374,-0.056331253209478134,-0.09975409076984854,0.16280683452045694,7181832918193.828,0.0,-2589264305431.501,0.7258128152780069,-0.2741738797660012,0.4486796324659261,0.44352117000489794,-0.028499138592801374,-0.056331253209478134,-0.09975409076984854
4.2,-98.40179690823821,14.828921526128596,269.41968685562665,287.21033792985617,0,8.509717774675407,192.43600418538512,11.032645078286093,18.98065622852089,0.013003939973385888,0.025187727342452327,0.03846452131155179,0.04161347428746041,0.08307217655452274,0.16007538353561637,0.1580160806929091,0.1661348556679828,7181832918193.828,0.0,-2589264305431.501,0.7622600716498732,-0.2346008705804323,0.385141902243023,0.4643142576185436,0.08307217655452274,0.16007538353561637,0.1580160806929091
4.4,-98.40061697811021,14.831191289067714,269.4263298836264,287.2162824271743,0,8.546142228968263,193.01151495687571,11.032643417529092,18.980877662787545,0.005899650640017734,0.011348814695590893,0.03321513999878786,0.037871812451080476,-0.03552144666684074,-0.06919456323430712,-0.026246906563819627,0.13012410304880218,7181832918193.828,0.0,-2589264305431.501,0.7046917117658708,-0.29374585674463766,0.4837691934457593,0.4278905590062548,-0.03552144666684074,-0.06919456323430712,-0.026246906563819627
4.5,-98.39942753847198,14.833463799432902,269.4301199930287,287.2195476419492,0,8.564232268152749,193.2984092997603,11.032642470001742,18.981003999767623,0.011894396382246028,0.022725103651879488,0.03790109402302746,0.04322147041914499,0.05994745742228315,0.11376288956288635,0.04685954024239612,0.14883757571991843,7181832918193.828,0.0,-2589264305431.501,0.755661713188649,-0.24274939025847608,0.40104573907996804,0.4573952600494852,0.05994745742228315,0.11376288956288635,0.04685954024239612
4.7,-98.39822860555365,14.83573907711025,269.43622404478214,287.2249804146306,0,8.600134811205958,193.87041214631236,11.032640943988804,18.981207468159404,0.00599466459163977,0.011376388386743475,0.030520258767126024,0.040930350212065744,-0.029498658953031262,-0.056743576325680015,-0.036904176279507137,0.11940133862182267,7181832918193.828,0.0,-2589264305431.501,0.7133477133472307,-0.28572349522289703,0.4735231363369235,0.4304334600069232,-0.029498658953031262,-0.056743576325680015,-0.036904176279507137
4.8,-98.39702018579467,14.838017061925262,269.4409515004844,287.2291187836986,0,8.61796786608781,194.1554952277253,11.032639762124878,18.981365050016148,0.012084197589814537,0.022779848150111883,0.04727455702266087,0.044597750015401866,0.06089532998174788,0.11403459763368448,0.16754298255534902,0.14023533231038016,7181832918193.828,0.0,-2589264305431.501,0.7368660747888511,-0.2631170373852191,0.4374241182751854,0.44323577609898906,0.06089532998174788,0.11403459763368448,0.16754298255534902
5.0,-98.39580234584324,14.84029768364396,269.44774102240336,287.23518847226495,0,8.65332848743244,194.72376135582684,11.032638064744399,18.981591367413447,0.006089199757184355,0.011403108593492906,0.033947609594804334,0.04357852724016229,-0.029974989163150882,-0.056883697783094836,-0.06663473713928261,0.12847586887369414,7181832918193.828,0.0,-2589264305431.501,0.7061404685876039,-0.2918557826729682,0.4867102143612354,0.4234371358060942,-0.029974989163150882,-0.056883697783094836,-0.06663473713928261
5.1,-98.39457506255576,14.842580911974004,269.45247017349755,287.2393223297761,0,8.67087919550079,195.00691914633666,11.032636882456625,18.981749005783254,0.012272832874771255,0.02283228330043138,0.04729151094181833,0.047775090055168175,0.061836331175869216,0.11429174706938514,0.1334390134701404,0.14529339760710278,7181832918193.828,0.0,-2589264305431.501,0.7385263746898516,-0.2614652376659385,0.437387177314722,0.44148293341919714,0.061836331175869216,0.11429174706938514,0.1334390134701404
5.3,-98.39333843299622,14.844866666565787,269.4601775174376,287.2462469416567,0,8.70566845758407,195.57122125711322,11.03263495562064,18.982005917247918,0.006183147797713668,0.011428772958916856,0.03853671970034608,0.045695258603449015,-0.030448425385287907,-0.05701755170757257,-0.04377395620736121,0.11705837522718883,7181832918193.828,0.0,-2589264305431.501,0.6977450118360751,-0.29861476758874733,0.5010710276611211,0.4158232127652589,-0.030448425385287907,-0.05701755170757257,-0.04377395620736121
5.4,-98.39209241443554,14.84715494701356,269.46491891862695,287.25038622695297,0,8.722921172492494,195.85234049737906,11.032633770270342,18.982163963954232,0.012460185606784014,0.022882804477735042,0.047414011893351676,0.05654102138529683,0.06277037809070313,0.11454031518818125,0.08877292193005552,0.2033387297649231,7181832918193.828,0.0,-2589264305431.501,0.7399548902605729,-0.2600432541814406,0.43769520298341347,0.4396216277886005,0.06277037809070313,0.11454031518818125,0.08877292193005552
5.61,-98.39083708435108,14.849445642856528,269.4736617422226,287.25827617463216,0,8.758802992017447,196.44038273173368,11.032631584564443,18.98245539140742,0.005977762306959752,0.010908075442702829,0.04163249331256902,0.053074060848558466,-0.030868682380115538,-0.05702251921443912,-0.027531040860869802,0.22009490770070292,242494535695.326,0.0,1219479119387.9507,0.6900042834529027,-0.30443649395824407,0.5139884501323607,0.40869106069694267,-0.030868682380115538,-0.05702251921443912,-0.027531040860869802
5.7,-98.38957243042596,14.851738763579974,269.4813794541554,287.265201477412,0,8.774077892009492,196.69142112358423,11.03262965513646,18.982712648471846,0.014051710279103567,0.02547911914939272,0.08575235480887197,0.06410972881774105,0.0897105330238203,0.1619004856298879,0.4902206832922558,0.323450138608699,242494535695.326,0.0,1219479119387.9507,0.6998966318333123,-0.29619556152547855,0.5016052471051364,0.4132857004029858,0.0897105330238203,0.1619004856298879,0.4902206832922558
5.9,-98.38829852054847,14.854034218616368,269.48821142115156,287.2712928806282,0,8.807604160037084,197.24711973558604,11.032627947144713,18.982940380705053,0.006369549387414957,0.011477275181972491,0.034159834980869136,0.06650375852811465,-0.03841080445844301,-0.07000921983710108,-0.25796259914001396,0.32226656245433755,242494535695.326,0.0,1219479119387.9507,0.710281213739005,-0.2872772371609807,0.48798216374908476,0.4181456615598935,-0.03841080445844301,-0.07000921983710108,-0.25796259914001396
6.0,-98.38701533281146,14.856331957346484,269.4974277107527,287.2796180170778,0,8.824259223897597,197.52382540388928,11.032625643072311,18.983247590358424,0.012831877370160828,0.022977387301157476,0.09216289601113237,0.06866868504764455,0.06462327982745893,0.11500112119185026,0.5800306103026344,0.3518379728332558,242494535695.326,0.0,1219479119387.9507,0.6884831707898834,-0.30484490205700376,0.5194031055705409,0.40408034244768914,0.06462327982745893,0.11500112119185026,0.5800306103026344
6.2,-98.38572291551166,14.858631949100515,269.5103759913361,287.2914411951703,0,8.85717408098797,198.07488797572614,11.032622406002165,18.983679199711204,0.0064620864989706145,0.01149995877015363,0.06474140291714997,0.06530264826582495,-0.03184895435595104,-0.05738714265501918,-0.13710746546991187,0.27541672071949597,242494535695.326,0.0,1219479119387.9507,0.6684558829937732,-0.3194822042001665,0.5459909617535006,0.39114156436500763,-0.03184895435595104,-0.05738714265501918,-0.13710746546991187
6.3,-98.3844213271492,14.86093413315919,269.51511563213575,287.295560838297,0,8.873440672205897,198.34922038768065,11.032621221091965,18.98383718773786,0.01301588362466082,0.023021840586761128,0.04739640799641637,0.06881862784100576,0.06553797125690229,0.11521881816607539,-0.17344994920733664,0.2786151387259479,242494535695.326,0.0,1219479119387.9507,0.7448545979861713,-0.2551414621068007,0.43734535828932325,0.4345382604048194,0.06553797125690229,0.11521881816607539,-0.17344994920733664
6.5,-98.38311056642682,14.863238438754903,269.5296202032623,287.3088381315964,0,8.905669013504703,198.89542650167127,11.032617594949183,18.984320673442078,0.00655380361187951,0.011521527978564084,0.07252285563282605,0.06549834783177313,-0.03231040006390652,-0.057501563040985165,0.1256322381820483,0.19327765975051456,242494535695.326,0.0,1219479119387.9507,0.6639136447268574,-0.32197324204167305,0.5535672214220936,0.3861544187520028,-0.03231040006390652,-0.057501563040985165,0.1256322381820483
6.6,-98.38179068224933,14.865544845072803,269.5343411757234,287.3129343319198,0,8.921577115704102,199.16727592796997,11.03261641470607,18.98447803919078,0.013198841774908534,0.02306406317899254,0.0472097246108662,0.06312791097745456,0.06645038163029048,0.11542535200428496,-0.25313131021959945,0.23027393651507433,242494535695.326,0.0,1219479119387.9507,0.746799676365632,-0.25319402805371344,0.4366171195800882,0.4330687225230073,0.06645038163029048,0.11542535200428496,-0.25313131021959945
6.8,-98.38046165372296,14.867853301251952,269.5499648214441,287.32725563758993,0,8.953085696251378,199.70840710895135,11.032612508794639,18.98499882738147,0.006645142631853667,0.011542280895744373,0.0781182286036141,0.0697458617251792,-0.03276849571527431,-0.05760891141624078,0.15454251996373938,0.2279620777706272,242494535695.326,0.0,1219479119387.9507,0.6616008390581452,-0.3228187296196978,0.5583501647647925,0.38251469392875864,-0.03276849571527431,-0.05760891141624078,0.15454251996373938
6.9,-98.3791235901547,14.870163746386423,269.5546838132865,287.3313440853471,0,8.9686212025768,199.9776648134484,11.032611329046677,18.98515612710955,0.013380635682551585,0.02310445134471083,0.04718991842366879,0.0890005404077289,0.06735493050697881,0.11562170448966397,-0.30928310179945145,0.36485189237888316,242494535695.326,0.0,1219479119387.9507,0.7483945922595255,-0.2515927683735543,0.4364458974016951,0.4314181171671615,0.06735493050697881,0.11562170448966397,-0.30928310179945145
7.1,-98.37777648105167,14.872476119526429,269.57195072507045,287.34720125486075,0,8.999387049293778,200.51350461616315,11.032607012318731,18.985731690835685,0.006735545515184096,0.011561865700029414,0.08633455891981642,0.08561712845896328,-0.03322545083683756,-0.05771292822340729,0.19572320248073885,0.44143610291370006,242494535695.326,0.0,1219479119387.9507,0.6583370809529752,-0.32425368088773726,0.5641633550207095,0.3783801621713881,-0.03322545083683756,-0.05771292822340729,0.19572320248073885
7.2,-98.37642030612042,14.874790389679447,269.5887375315929,287.362605196399,0,9.014656719258877,200.78006289936673,11.032602815617102,18.986291251053096,0.013561749312458387,0.02314270153018315,0.16786806522475128,0.10682861379713005,0.06826203797274255,0.11580835830153674,0.8153350630493442,0.7061996039567413,242494535695.326,0.0,1219479119387.9507,0.6601428551872927,-0.3226444880062896,0.5630332874745212,0.3782928261280691,0.06826203797274255,0.11580835830153674,0.8153350630493442
7.4,-98.37505521526637,14.87710649581134,269.5956872086481,287.36877761475347,0,9.04453269534277,201.31039699503822,11.032601078197837,18.98652290695494,0.006825454270256153,0.011580530659465172,0.034748385275804566,0.1166419999827085,-0.03368147521101114,-0.05781085435358983,-0.665598399744733,0.7169623766380384,242494535695.326,0.0,1219479119387.9507,0.7161958234207347,-0.2804659119112425,0.4908596384039241,0.4092178272710755,-0.03368147521101114,-0.05781085435358983,-0.665598399744733
7.5,-98.37368110859309,14.879424376847485,269.6140205330471,287.3856267676514,0,9.05941772537714,201.57414923718915,11.032596494866738,18.987134017768238,0.013741066732819766,0.023178810361450614,0.18333324399009207,0.11128979506171541,0.06915612462563638,0.11598279701985482,1.4858485871428804,0.7928447668326969,51311926572783.414,0.0,3677656131.80076,0.6575564846973536,-0.32356882985093455,0.5679752242776045,0.3746022242167827,0.06915612462563638,0.11598279701985482,1.4858485871428804
7.71,-98.37229808640161,14.8817440016739,269.63554188263794,287.405464077625,0,9.09006102104583,202.1248939586155,11.03259111452934,18.987851396087933,0.00658581995940906,0.01104583250673604,0.1024826170992453,0.1003652023566483,-0.03407260368290813,-0.05777608502245036,-0.3850029851945085,0.6916968970502012,2818839997177.595,0.0,-1140322606209.6487,0.6519936911103066,-0.32678064972512566,0.5752908591441307,0.37034991710919934,-0.03407260368290813,-0.05777608502245036,-0.3850029851945085
7.8,-98.37090619918982,14.884065309138368,269.6402773363248,287.40955055214613,0,9.10296161176407,202.35960620296817,11.03258993066592,18.98800924454416,0.015465413464394537,0.025792305160759456,0.052616152076249596,0.10278921691404135,0.09866215005539436,0.163849696155816,-0.554071833588842,0.690064344274156,-6.815663179163688,0.0,-0.14837592217946566,0.7526067472967175,-0.24733872802694604,0.43670249990996013,0.42625997245091957,0.09866215005539436,0.163849696155816,-0.554071833588842
8.0,-98.36950541765175,14.886388228051564,269.6631922740874,287.4306897637083,0,9.13134410453992,202.87829479190856,11.032584201931478,18.988773075802914,0.007003907690332761,0.011614594565978454,0.11457468881303602,0.09127815497119643,-0.04230752887030885,-0.07088855297390495,0.30979268368393187,0.48096349110747294,-6.815663179163688,0.0,-0.14837592217946566,0.6508958420010325,-0.3266305062294603,0.5783897236647467,0.36757644487245295,-0.04230752887030885,-0.07088855297390495,0.30979268368393187
8.11,-98.36809584267688,14.888712747188194,269.667894577001,287.43473939761503,0,9.146631566859252,203.16184574156526,11.03258302635575,18.988929819233366,0.012814317953381248,0.021131992151185046,0.04274820830532526,0.08050695218060712,0.052821911482259246,0.08652179622915128,-0.6529680046155557,0.5570631922915066,-6.815663179163688,0.0,-0.14837592217946566,0.754739549770645,-0.24520569350892915,0.4354576660101873,0.42499294228936235,0.052821911482259246,0.08652179622915128,-0.6529680046155557
8.3,-98.36667741534953,14.89103879528811,269.6920132272551,287.4570024555118,0,9.172782874492476,203.64867307169013,11.032576996693185,18.989733774241838,0.007465406986060074,0.012242358420606298,0.12694026449516405,0.09520507322665242,-0.028152162985900724,-0.04678754595041415,0.4431160852096748,0.5358005781812911,-6.815663179163688,0.0,-0.14837592217946566,0.6502536721881635,-0.3261740862598721,0.5809371423131546,0.36509267856171984,-0.028152162985900724,-0.04678754595041415,0.4431160852096748
8.41,-98.3652502669481,14.893366321057446,269.69671540817285,287.46104626959374,0,9.187587574809584,203.92879124602558,11.032575821147956,18.98989051360576,0.012974076376663587,0.021159325175788314,0.04274709925249993,0.11921771904458114,0.05007881264185038,0.08106333413801875,-0.7653924112969506,0.6743917944205278,-6.815663179163688,0.0,-0.14837592217946566,0.7561942926567984,-0.24373379253262653,0.43535174093318324,0.42335905777176125,0.05007881264185038,0.08106333413801875,-0.7653924112969506
8.6,-98.36381429894439,14.895695263169758,269.72204610423046,287.4844410667524,0,9.212905586832859,204.40959219755445,11.032569488473943,18.990734870141015,0.007557726335287398,0.01225759006480029,0.13331945293478084,0.11684962221100448,-0.028507105480927383,-0.04685123742625288,0.47669659832779554,0.7416062734503697,-6.815663179163688,0.0,-0.14837592217946566,0.649727244051802,-0.3256301896719561,0.5833272350773655,0.3626966014840116,-0.028507105480927383,-0.04685123742625288,0.47669659832779554
8.7,-98.362369643003,14.898025580267145,269.74542970107586,287.5060064982906,0,9.226112171061768,204.6610771556343,11.03256364257473,18.991514323369195,0.014446559413841039,0.023303170973871884,0.23383596845406002,0.13223950894697292,0.06888833078553665,0.11045580909071633,1.0051651551927954,0.933521169478966,550106514548.5654,0.0,-554264478635.7023,0.6528242262528403,-0.3232657134834251,0.5807510957630976,0.36338405698846227,0.06888833078553665,0.11045580909071633,1.0051651551927954
8.9,-98.36091637098046,14.900357220961387,269.7524163855476,287.5121852382836,0,9.251667658909124,205.16074781199663,11.032561895903612,18.991747212851585,0.007266360112723152,0.011658203471211985,0.034933422358562706,0.1530669270894885,-0.03590099650558924,-0.05822483751329918,-0.9945127304774813,0.8361237515922693,11.897271641236255,0.0,-0.052318878197044685,0.7225804949468106,-0.27325016949985437,0.4922933920521327,0.4010722993832013,-0.03590099650558924,-0.05822483751329918,-0.9945127304774813
9.02,-98.35945439492471,14.902690143835066,269.77682524569383,287.5347072651162,0,9.266905376620768,205.45840883930293,11.032555793688577,18.992560841523126,0.012183133797923615,0.01944102394732355,0.2034071678854364,0.137043096196417,0.04097311404333746,0.06485683730093014,1.4039478793906233,0.9544578473333907,4.590171029843836,0.0,0.09570883861401284,0.6524219765767132,-0.32265230736804656,0.5829700412986443,0.36109137898607774,0.04097311404333746,0.06485683730093014,1.4039478793906233
9.2,-98.35798379707425,14.905024277442719,269.8043293707909,287.560130881454,0,9.289246533780641,205.90183946278617,11.032548917657302,18.99347764569303,0.008169988058091993,0.012967408931401872,0.15280069498386561,0.11855230618994324,-0.022295254110175713,-0.03596452786623161,-0.28114707167539366,0.848684196199649,119384767084.76936,0.0,-536957410587.67676,0.6492431184476045,-0.3241666659433794,0.5873792261943402,0.3583085129813712,-0.022295254110175713,-0.03596452786623161,-0.28114707167539366
9.3,-98.3565046698575,14.907359590311964,269.8089653513622,287.5640957504937,0,9.301329535281177,206.14658222417873,11.03254775866216,18.99363217837874,0.014791272167542292,0.02335312869245565,0.046359805712653974,0.12190224405528272,0.06621284109450205,0.1038571976105363,-1.0644088927121014,0.8426320936897028,218459510145.21014,0.0,-2249546587.713965,0.7617832122587821,-0.23812619383858477,0.4326947383513978,0.4192344412517363,0.06621284109450205,0.1038571976105363,-1.0644088927121014
9.5,-98.35501695589208,14.909696020944633,269.83742767919597,287.5904132135773,0,9.325205286370707,206.63257072314389,11.0325406430802,18.994580922639866,0.007438569827087375,0.011682153163343797,0.1423116391688955,0.10941486460903196,-0.036763511702274716,-0.058354877645559466,0.4797591672812094,0.6573509982489482,218459510145.0064,0.0,-2249546587.5684423,0.6492281466880016,-0.3232873643261441,0.5891141437168711,0.356276043662573,-0.036763511702274716,-0.058354877645559466,0.4797591672812094
9.6,-98.35352077798409,14.912033517817907,269.84209334736454,287.59440038907167,0,9.336804070075642,206.87379486130766,11.032539476663159,18.99473644491215,0.014961779079953939,0.023374968732739004,0.04665668168570408,0.08855353729590083,0.0752320925286659,0.11692815569395248,-0.9565495748319176,0.782276644233944,73571238676.77457,0.0,-533055070456.75586,0.7625509278708279,-0.23731499747047918,0.4336656824523318,0.41729096592435255,0.0752320925286659,0.11692815569395248,-0.9565495748319176
9.8,-98.35201608912737,14.914372019385457,269.87040915024176,287.62057523141056,0,9.359698832486359,207.35264931030852,11.032532397712439,18.995680305008058,0.007523444283563623,0.011692507837750492,0.14157901438608103,0.10595088985428883,-0.03719167398195138,-0.05841230447494225,0.4746116635018822,0.6666512303365295,73571238684.4096,0.0,-533055070456.9,0.6503317941414428,-0.3217314487341117,0.5895940777199077,0.35487498635693254,-0.03719167398195138,-0.05841230447494225,0.4746116635018822
9.91,-98.35050299250278,14.916711494078577,269.87505668352196,287.62453987900625,0,9.371899067548618,207.61395197282562,11.032531235829119,18.995835222784066,0.013755423859927169,0.021267951755632564,0.042250302547328054,0.12777213337890908,0.05665435978512343,0.08704949016256475,-0.9029882894432135,0.7920142801545638,-45813528406.92855,0.0,3902340130.6811776,0.7642789313880305,-0.2355760962634627,0.432917069419002,0.4158899240319498,0.05665435978512343,0.08704949016256475,-0.9029882894432135
10.11,-98.34898144147746,14.919051880307322,269.90311064423724,287.65046392282903,0,9.393757670112091,208.08523338561238,11.03252422233894,18.996770354807907,0.00760775512659964,0.011701931143726127,0.14026980357641655,0.1247577308408518,-0.03073834366663775,-0.04783010305953235,0.4900975051454442,0.8245940287025866,-325564680487.50354,0.0,-1054471967642.8688,0.6515462321222617,-0.320113317853803,0.5899317360992952,0.3535470518654988,-0.03073834366663775,-0.04783010305953235,0.4900975051454442
10.21,-98.34745144960412,14.921393126461647,269.92816403077563,287.67357006943126,0,9.404543563826579,208.31900697273568,11.032517958992306,18.997605467692523,0.015299918733404421,0.023412461543248164,0.25053386538388267,0.14619472874299794,0.07692163606804672,0.1171053039952187,1.1026406180746455,1.1525532967686227,-325564680495.5731,0.0,-1054471967642.8704,0.6554924605409029,-0.3172944352895731,0.5863883098270836,0.35468665834288154,0.07692163606804672,0.1171053039952187,1.1026406180746455
10.4,-98.34591320062029,14.92373518091254,269.93506794289914,287.679643736486,0,9.42415913391567,208.75970075385504,11.032516233014276,18.997835598096636,0.00809604728333938,0.01232660237312678,0.0363363795973951,0.1623474683626845,-0.03791511289507926,-0.05834662721116533,-1.1273551883499375,1.090188191495093,49399034990185.875,0.0,-4175519302.5203123,0.7299821793811505,-0.2652398535761261,0.4915417970693585,0.39390417565022895,-0.03791511289507926,-0.05834662721116533,-1.1273551883499375
10.5,-98.34436658844756,14.926077992013171,269.959853981761,287.7024939164767,0,9.434444991005645,208.9897959256961,11.03251003650456,18.998661799392032,0.015466121727314486,0.023428111006307345,0.24786038861862014,0.1448810246934776,0.07370074443975132,0.11101508633180604,2.1152400902122577,1.1611339369111764,49399034990185.875,0.0,-4175519302.5203123,0.6567864040828175,-0.3156464396878143,0.586597813205424,0.35341469984563956,0.07370074443975132,0.11101508633180604,2.1152400902122577
10.7,-98.34281170719076,14.92842151810002,269.9857063499236,287.7263422364473,0,9.4542580720486,209.4461108084199,11.03250357341252,18.999523544997455,0.00777440628397133,0.011717630434242607,0.1292618408129447,0.12019202703467155,-0.03845857721671592,-0.0585524028603239,-0.5929927390283793,1.0222619551080887,49399034990185.875,0.0,-4175519302.5203123,0.6558967306519758,-0.3157457990873392,0.5884127446750591,0.3519581096987404,-0.03845857721671592,-0.0585524028603239,-0.5929927390283793
10.8,-98.3412486211375,14.93076568749402,269.99026965137546,287.7302115711898,0,9.46381831028365,209.6723102387163,11.032502432587156,18.99967565504585,0.015630860532666935,0.023441693940000286,0.045633014518670544,0.12292815968846615,0.07856454248695494,0.11724063505757512,-0.8362882629427296,0.9650862507463153,49399034990185.875,0.0,-4175519302.5203123,0.769998271770295,-0.22984898121653624,0.4295234675582765,0.41204574760722085,0.07856454248695494,0.11724063505757512,-0.8362882629427296
11.0,-98.33967729475697,14.9331104585017,270.0158433915489,287.7537933735231,0,9.48257315403836,210.120742811271,11.032496039152113,19.00052811305163,0.00785663190264077,0.011723855038399164,0.1278687008672823,0.09613290725058943,-0.03887114315013096,-0.058589194508005815,0.41117843174306024,0.6093137708151025,49399034990185.875,0.0,-4175519302.5203123,0.6571668596843265,-0.31411426733856523,0.588625502152031,0.3506906953474334,-0.03887114315013096,-0.058589194508005815,0.41117843174306024
11.1,-98.33809782269957,14.935455779416321,270.02031377733726,287.7575701439276,0,9.491600509133468,210.34295602326654,11.032494921555665,19.000677125911242,0.01579472057400727,0.02345320914621149,0.04470385788351921,0.07999165321022722,0.07938088671366528,0.11729354107812368,-0.8316484298376339,0.6415226585004673,49399034990185.875,0.0,-4175519302.5203123,0.7732646493042529,-0.22663236962778102,0.4258618892166786,0.411510877725084,0.07938088671366528,0.11729354107812368,-0.8316484298376339
11.31,-98.33651018979592,14.937801618519012,270.0443962171112,287.7797475184212,0,9.51012075599029,210.80520245661052,11.032488900945722,19.00147987390371,0.007560156684048351,0.01117066239376839,0.11467828463791839,0.09701733003510929,-0.03921220899980422,-0.058488317868776424,0.33321155597332813,0.5756151543930546,49399034990185.875,0.0,-4175519302.5203123,0.6600715258981548,-0.31151624183891957,0.5869838869678506,0.3503043365548743,-0.03921220899980422,-0.058488317868776424,0.33321155597332813
11.41,-98.33491448105617,14.940147894079933,270.0484300207368,287.7831092711287,0,9.518585572674432,211.0232032194721,11.032487892494816,19.00161433402456,0.015957087397424685,0.02346275560920938,0.04033803625588931,0.11776797048780599,0.08396930713376363,0.12292093215441031,-0.7434024838202934,0.6795406365202332,49399034990185.875,0.0,-4175519302.5203123,0.784420648903469,-0.21554824775031284,0.40726936808560266,0.41515642869258845,0.08396930713376363,0.12292093215441031,-0.7434024838202934
11.6,-98.33331062166924,14.942494554359383,270.0746404995911,287.80727850822,0,9.534352622539444,211.43359810560466,11.032481339875101,19.00248801665304,0.008441365194381743,0.012350843576052472,0.1379498887068194,0.11385842817160156,-0.039556432647594536,-0.058483747542931244,0.5137465918470019,0.7020003082174708,49399034990185.875,0.0,-4175519302.5203123,0.6582005703420415,-0.3117522092429022,0.5906811473511187,0.34738789759798333,-0.039556432647594536,-0.058483747542931244,0.5137465918470019
11.7,-98.33169874700201,14.94484155760896,270.0977052665796,287.82849347819143,0,9.542478248138067,211.64757386401845,11.032475573683355,19.003256842219322,0.016118746672333432,0.023470032495769372,0.23064766988511648,0.1398859105740032,0.07677381477951717,0.1111918891971694,0.9269778117829741,1.1091340225558812,49399034990185.875,0.0,-4175519302.5203123,0.6629475527717473,-0.3085120288735618,0.5861428009924731,0.34893765511759806,0.07677381477951717,0.1111918891971694,0.9269778117829741
11.91,-98.33007894259853,14.9471888520727,270.10410133615255,287.834064068254,0,9.558521339111604,212.09233335092716,11.032473974665962,19.003470044538417,0.007713354302262826,0.011177592684471606,0.030457474156805893,0.1557001157593131,-0.040025677952717005,-0.058535427672846266,-0.9532866463252847,1.0747621288542313,49399034990185.875,0.0,-4175519302.5203123,0.7427153974879219,-0.2530278818782454,0.4820340386405535,0.3898639697618185,-0.040025677952717005,-0.058535427672846266,-0.9532866463252847
12.0,-98.32845109417933,14.949536385988216,270.12602052432106,287.85419902624716,0,9.565338377177664,212.28102409047852,11.032468494868919,19.004200684144035,0.018087204657825248,0.02608371017240631,0.2435465352056734,0.13288001887889703,0.11526500395069376,0.1656235276437192,2.3676562338763096,1.0785697454024084,-114496254498775.08,0.0,-500083134526.7474,0.6657161981027127,-0.3060122450900087,0.5845839020510422,0.3484825833544913,0.11526500395069376,0.1656235276437192,2.3676562338763096
12.2,-98.32681534764048,14.951884107587842,270.1515384486735,287.87770872535583,0,9.57971409712487,212.696166348446,11.032462115387832,19.00505128162245,0.008178732694261755,0.011738607998133019,0.12758962176207023,0.1389714912520426,-0.04954235981781764,-0.07172551087136672,-0.579784567218018,1.3745042950231918,-114496254498775.08,0.0,-500083134526.7474,0.6608329653883932,-0.3084657313235435,0.5908740197428874,0.3449877928969314,-0.04954235981781764,-0.07172551087136672,-0.579784567218018
12.4,-98.32517174905293,14.954231965099774,270.1555518283917,287.88103556304225,0,9.593123517182995,213.10549604073105,11.032461112042903,19.00518506094639,0.008217992937744568,0.011739287559659965,0.020066898591153296,0.14235834350468407,0.00019630121741406428,3.3978076347321124e-06,-0.5376136158545818,1.6233842635188647,-114496254498775.08,0.0,-500083134526.7474,0.788654463385296,-0.21133454578410396,0.40591479717423573,0.4106032447213202,0.00019630121741406428,3.3978076347321124e-06,-0.5376136158545818
12.5,-98.32352021466166,14.95657990674921,270.18168018426684,287.90511321805906,0,9.599786040553841,213.30795839382168,11.032454579953933,19.00605600614223,0.01651534391271531,0.02347941649436089,0.26128355875130277,0.11889318730227978,0.08297350974970773,0.11740128934700965,2.4121666016015033,1.2355412825681718,-114496254498775.08,0.0,-500083134526.7474,0.6609395646218593,-0.30752904981326623,0.5923019637490221,0.3431663724455951,0.08297350974970773,0.11740128934700965,2.4121666016015033
12.6,-98.32186093088484,14.958927880759493,270.1858053387151,287.90853976008435,0,9.606038736568184,213.50894039868865,11.032453548665321,19.006193511290505,0.01659283776817239,0.02347974010282536,0.04125154448274785,0.10330377107340372,0.0007749385545707837,3.2360846446977235e-06,-2.200320142685557,1.292858397558208,-114496254498775.08,0.0,-500083134526.7474,0.7872272957498201,-0.2127674036299293,0.4108943408453174,0.40763839053785916,0.0007749385545707837,3.2360846446977235e-06,-2.200320142685557
12.8,-98.32019380431313,14.961275815353254,270.2112993157935,287.93201725697355,0,9.618144713736385,213.90642769994,11.03244717517105,19.00704331052645,0.008335632858518193,0.011739672968804564,0.12746988539191695,0.12440218669328382,-0.04128602454827076,-0.05870033567010366,0.4310917045458432,1.2744685047536704,-114496254498775.08,0.0,-500083134526.7474,0.662601254237881,-0.3056950398383174,0.5919723595940447,0.34216786228004464,-0.04128602454827076,-0.05870033567010366,0.4310917045458432
12.9,-98.3185189917088,14.963623698753542,270.2154377412153,287.93545110770486,0,9.623824505824299,214.10291533028746,11.032446140564696,19.00718125804051,0.016748126043353354,0.023478834002883614,0.04138425421786011,0.11997653286339385,0.08412493184835192,0.11739161034079092,-0.8608563117405715,1.0123578530733757,-114496254498775.08,0.0,-500083134526.7474,0.7881141689128883,-0.211870756912616,0.4113844267016765,0.4058936961709992,0.08412493184835192,0.11739161034079092,-0.8608563117405715
13.1,-98.31683642000495,14.96597145918499,270.2413070423655,287.95927603972274,0,9.634782973649124,214.491334887058,11.032439673239407,19.00804356807885,0.008412858519264462,0.011738802157239589,0.12934650575118714,0.116861907202963,-0.04167633762044461,-0.05870015922822033,0.43981125766663676,0.7802368154320976,-114496254498775.08,0.0,-500083134526.7474,0.6629717186699232,-0.3046117000992985,0.5930675523251843,0.3405159185493068,-0.04167633762044461,-0.05870015922822033,0.43981125766663676
13.2,-98.3151461563046,14.968319034874932,270.265205348316,287.98124897366625,0,9.64008225371969,214.6832495504536,11.03243369866292,19.0088401782772,0.016902637003397617,0.02347575689942269,0.23898305950467688,0.13577077730484846,0.08489778484133186,0.11736954742183142,1.0963655375349013,1.038447070144921,-114496254498775.08,0.0,-500083134526.7474,0.6660873400504089,-0.3023823210777703,0.5903228489754744,0.3411913265334723,0.08489778484133186,0.11736954742183142,1.0963655375349013
13.4,-98.31344834788007,14.970666394054566,270.2715137898406,287.98671175001346,0,9.649684221289045,215.06244600009956,11.032432121552539,19.009050459661353,0.008489042122690148,0.011736795898169498,0.03154220762297638,0.15351594852218448,-0.04206797440353712,-0.05869480500626564,-1.037204259408497,0.9519437326828346,-114496254498775.08,0.0,-500083134526.7474,0.7496596078924328,-0.245557767827066,0.4806646494130109,0.38297956833102703,-0.04206797440353712,-0.05869480500626564,-1.037204259408497
13.51,-98.31174283217197,14.973013484960076,270.2958521994301,288.00909296016346,0,9.654842275225526,215.26835139763472,11.032426036950142,19.009861739981005,0.015504688255418921,0.021337190050083922,0.2212582689956198,0.13752740971640975,0.06377860120662554,0.08727631047194975,1.7246914670240399,1.0595729971366183,35950704359465.91,0.0,490405399816.2377,0.6662946362680197,-0.30140117122166293,0.5915849662894989,0.3394643123023828,0.06377860120662554,0.08727631047194975,1.7246914670240399
13.7,-98.31002980678844,14.975360235833785,270.32213401130696,288.03329583787985,0,9.663037462910298,215.61953260223407,11.032419466497172,19.010737800376898,0.009015923071250391,0.012351320387943027,0.13832532566766567,0.11606450573826307,-0.034151395706150244,-0.04729405085337325,-0.436489175410286,0.9312355213820419,-514242020937.63214,0.0,-485881693955.2748,0.6641260561363351,-0.3022065595135508,0.5947527195971389,0.3374566334798995,-0.034151395706150244,-0.04729405085337325,-0.436489175410286
13.8,-98.30830929950437,14.977706604925293,270.32622576143996,288.0366707676216,0,9.666969318359119,215.80207290163648,11.03241844355964,19.010874192047996,0.017205072840624537,0.023463690915086155,0.04091750132999947,0.11912805051057687,0.0818914976937403,0.1111237052714297,-0.9740782433766482,0.9095536852820146,-630766367707.6078,0.0,-665989256.6126953,0.7927032667202183,-0.20727016586323443,0.409005017546751,0.4017157015797411,0.0818914976937403,0.1111237052714297,-0.9740782433766482
14.0,-98.30658123826046,14.980052550492617,270.35274878755854,288.06109537068517,0,9.674426947852506,216.16237186624852,11.03241181280311,19.011758292918618,0.008640306219547287,0.011729727836620227,0.13261513059291066,0.10157337300537413,-0.0428238331053864,-0.05866981539232985,0.4584881463145576,0.6586868504533919,-630766367711.0306,0.0,-665989256.4386535,0.6646509081828867,-0.30103319328188083,0.595633876706254,0.3359143815231148,-0.0428238331053864,-0.05866981539232985,0.4584881463145576
14.1,-98.30484579116252,14.98239800080335,270.35681252916726,288.06443903545266,0,9.677768327319374,216.34011451823014,11.032410796867708,19.01189375097224,0.017354470979427168,0.023454503107327523,0.040637416087179336,0.08277997180468427,0.08714164759879912,0.11724775270707338,-0.9197771450573166,0.7496009365578304,-630766367699.7102,0.0,-665989256.4379594,0.7945012130697152,-0.20547312963686268,0.40763796930940815,0.4004745952058459,0.08714164759879912,0.11724775270707338,-0.9197771450573166
14.3,-98.30310286648049,14.98474289413577,270.38366432756,288.0891675991651,0,9.684045763949957,216.69074666367496,11.03240408391811,19.012788810918664,0.008714623410170883,0.011724466662101855,0.13425899196363317,0.10151023195951352,-0.0431992378462812,-0.05865018222612803,0.4681078793822667,0.6655410888881681,-630766367690.303,0.0,-665989256.6114264,0.6650645418382927,-0.29992207378160113,0.5966253890746153,0.33432626274274313,-0.0431992378462812,-0.05865018222612803,0.4681078793822667
14.41,-98.3013526426477,14.987087208779991,270.3876846258338,288.09246555871107,0,9.687053398557447,216.88081797993723,11.032403078843542,19.012922820861128,0.015911125752604137,0.02131195131109831,0.03654816612559214,0.12443583292307073,0.06542274856757538,0.08715895135451367,-0.8882802348912866,0.7811066058085254,-116524346748.91951,0.0,485215704698.7487,0.7966577872231979,-0.20332351337922905,0.40553579962089553,0.3994203727773601,0.06542274856757538,0.08715895135451367,-0.8882802348912866
14.6,-98.29959500825998,14.98943089303912,270.4148603689029,288.1174936126205,0,9.691885330512319,217.20444565163936,11.032396284907774,19.01382867896343,0.009250707303764533,0.012335180311205925,0.14303022667951718,0.12129626223902581,-0.03505483394126117,-0.047246163157328463,0.5604318976522384,0.8106141867125265,-116524346748.91951,0.0,485215704698.7487,0.6654799633113279,-0.29881171057906225,0.597597145542673,0.332754611825618,-0.03505483394126117,-0.047246163157328463,0.5604318976522384
14.7,-98.2978300820748,14.991773875230386,270.4394904035122,288.140130236109,0,9.694243603590284,217.37238167213866,11.032390127399122,19.014649680117074,0.017649261851886484,0.023429821912657273,0.2463003460928812,0.14206809147761187,0.08398554548121981,0.11094641601451387,1.032701194133644,1.1290450561175638,-116524346748.91951,0.0,485215704698.7487,0.6691583611848981,-0.29631807595491955,0.5941929677191375,0.33370256611515586,0.08398554548121981,0.11094641601451387,1.032701194133644
14.9,-98.29605798301041,14.994116123686277,270.44569627825086,288.1454722336581,0,9.697932466868796,217.70326335739577,11.032388575930437,19.014856542608364,0.008860495321911752,0.01171124227945513,0.031029373693342965,0.15894321995506616,-0.04394383264987343,-0.058592898166010404,-1.0763548619976855,1.059403743573175,-116524346748.91951,0.0,485215704698.7487,0.7565120876775951,-0.23820559365398608,0.4789217663621376,0.3762731694583187,-0.04394383264987343,-0.058592898166010404,-1.0763548619976855
15.0,-98.29427860014508,14.996457566755678,270.46940564356566,288.16724021695825,0,9.699684029643766,217.86619431635535,11.032382648589108,19.015646854785523,0.01779382865336749,0.02341443069401103,0.23709365314800918,0.13879275249503903,0.0893333333145577,0.11703188414555941,2.0606427945466694,1.1435045658591623,-116524346748.91951,0.0,485215704698.7487,0.6713105951561087,-0.29424752095935136,0.593187530945347,0.3330000516086896,0.0893333333145577,0.11703188414555941,2.0606427945466694
15.2,-98.29249203271604,14.998798162805018,270.49515315177433,288.19091903620415,0,9.70237181946891,218.1870002605127,11.032376211712055,19.016505105059146,0.00893283714518137,0.01170298024669951,0.128737541043336,0.11565381344496894,-0.04430495754093076,-0.058557252236557805,-0.5417805605233678,1.0362467492890333,-116524346748.91951,0.0,485215704698.7487,0.6688239973187798,-0.2952012459192967,0.5966957248442543,0.3308850207712852,-0.04430495754093076,-0.058557252236557805,-0.5417805605233678
15.3,-98.29069841011884,15.001137870219406,270.49829805707833,288.1933808801414,0,9.703318871113735,218.34486098772135,11.03237542548573,19.016609935235945,0.017936225972050326,0.023397074143875707,0.03144905303997758,0.11720668179048954,0.09003388826868829,0.1169409389717603,-0.9728848800335704,1.0257120172853402,-116524346748.91951,0.0,485215704698.7487,0.8228608948837421,-0.1759125418279297,0.356509981676646,0.40602383952630366,0.09003388826868829,0.1169409389717603,-0.9728848800335704
15.5,-98.2888976419063,15.003476617403765,270.5246022155759,288.21757773280535,0,9.704813550534473,218.65546287267864,11.032368849446106,19.017486740519196,0.00900384106266475,0.011693735921793943,0.13152079248783413,0.0955867479959994,-0.044661924546928036,-0.058516691110409025,0.5003586972392845,0.7136120946341039,-116524346748.91951,0.0,485215704698.7487,0.6688845004804149,-0.29429535142815505,0.5980244034888307,0.32916649886747684,-0.044661924546928036,-0.058516691110409025,0.5003586972392845
15.6,-98.28708987778776,15.00581437278397,270.5275997852747,288.21989651517214,0,9.705159438312679,218.80819022595023,11.03236810005368,19.017586659509156,0.01807764118538564,0.02337755380205317,0.029975696987776353,0.07720606865200427,0.09073800122720921,0.11683817880259267,-1.0154509550005812,0.7939611598195763,-116524346748.91951,0.0,485215704698.7487,0.8281373140407811,-0.17006212505312462,0.3464849455104811,0.4064672745133795,0.09073800122720921,0.11683817880259267,-1.0154509550005812
15.8,-98.28527499762815,15.008151044807995,270.55359412610414,288.24379815304934,0,9.705451234258522,219.1084638150948,11.032361601468473,19.018453137536806,0.009074400798070266,0.0116833601201271,0.12997170414735068,0.09671142925679638,-0.04501620193657663,-0.058470968409630036,0.499980035797869,0.7171381716811807,-116524346748.91951,0.0,485215704698.7487,0.6700499933719479,-0.29277669724378186,0.5981109385255181,0.32799103211734215,-0.04501620193657663,-0.058470968409630036,0.499980035797869
15.91,-98.28345324144706,15.010486641947033,270.5564922999282,288.24601890734397,0,9.70515674847293,219.2706541433393,11.032360876925017,19.01854974333094,0.016561419828065114,0.0212327012639756,0.026347034764223252,0.11681320186138658,0.06806380936358988,0.08681219221680501,-0.9420424489375269,0.7836731200929424,-116524346748.91951,0.0,485215704698.7487,0.8320771736258824,-0.16568331748138493,0.33935596397362217,0.4062439478375761,0.06806380936358988,0.08681219221680501,-0.9420424489375269
16.1,-98.28162445941801,15.012821062696645,270.5830475705572,288.27044270131654,0,9.704293744548353,219.54582189342418,11.032354238107361,19.019434919018572,0.009625168573952634,0.012286424997959499,0.13976458225783878,0.11364964733743343,-0.03650658554796018,-0.04708566455797917,0.5969344604927093,0.7999963535348203,-116524346748.91951,0.0,485215704698.7487,0.6700964240314085,-0.2918759541904615,0.5994311459027697,0.3262844023048281,-0.03650658554796018,-0.04708566455797917,0.5969344604927093
16.21,-98.27978875186739,15.015154275577899,270.60848900375976,288.2938189693443,0,9.703565010561551,219.70223234012272,11.032347877749059,19.02028296679199,0.01668825046023552,0.021211026193219188,0.23128575638690105,0.13903400303527289,0.06420983532984477,0.08113273813872487,0.8320106739005704,1.1695583425262082,-116524346748.91951,0.0,485215704698.7487,0.6719204157004567,-0.29044265018355203,0.5980725324062527,0.32630548248604757,0.06420983532984477,0.08113273813872487,0.8320106739005704
16.4,-98.27794630927369,15.017486249138495,270.6125003672751,288.2970776456813,0,9.701337766311099,219.96736217026677,11.03234687490818,19.02041667890917,0.009697066282623689,0.012273545055766237,0.021112439554527854,0.15725009156543288,-0.03679570619795745,-0.047039374407647674,-1.1061753517493458,1.1027030634807553,-116524346748.91951,0.0,485215704698.7487,0.803787025335681,-0.19609272896658186,0.4048391798375501,0.3893318610349218,-0.03679570619795745,-0.047039374407647674,-1.1061753517493458
16.5,-98.27609694226655,15.019816871953903,270.63810133082444,288.3205993699139,0,9.700111070216082,220.1043312027646,11.032340474667294,19.021270044360815,0.01849367007139309,0.02330622815408712,0.25600963549322475,0.13795112064584322,0.08796603788769275,0.11032683098320725,2.348971959386936,1.2062813777510841,-116524346748.91951,0.0,485215704698.7487,0.6724549594002525,-0.2892783234275451,0.5988312408857578,0.3248438457354196,0.08796603788769275,0.11032683098320725,2.348971959386936
16.71,-98.27424079162589,15.02214614262849,270.6649750661221,288.3453138260538,0,9.69661737315813,220.3861572640814,11.032333756233468,19.022165835537404,0.008838812574584205,0.011091765117077696,0.12797016808414238,0.11691791661496231,-0.04597551188956593,-0.05816410970004464,-0.6097117495670564,1.1333981630448347,-116524346748.91951,0.0,485215704698.7487,0.6711948118693263,-0.2895203331344381,0.6009165659304642,0.3233802436942642,-0.04597551188956593,-0.05816410970004464,-0.6097117495670564
16.8,-98.27237802828098,15.024474019796672,270.66760024688773,288.3472644682344,0,9.69476240686503,220.5045198979427,11.032333099938278,19.022253341562923,0.02069737049892085,0.025865301868696972,0.029168675173549617,0.11960771839787139,0.1317617547148518,0.16415040835132555,-1.0977943656732545,1.1156876201652495,-116524346748.91951,0.0,485215704698.7487,0.843242437525102,-0.15297583006993457,0.31833459901799643,0.40522052025926614,0.1317617547148518,0.16415040835132555,-1.0977943656732545
17.01,-98.27050846330962,15.026800412124032,270.69424834885643,288.37176292663537,0,9.690013423783132,220.775021494724,11.032326437912786,19.023141611628546,0.008902690339799096,0.011078058701714159,0.1268957236604923,0.09641308641609303,-0.05616514361486526,-0.07041544365229882,0.46536689755686794,0.7666966765191143,-116524346748.91951,0.0,485215704698.7487,0.6722059644134811,-0.28809711816795625,0.6011232886532838,0.3221645290048567,-0.05616514361486526,-0.07041544365229882,0.46536689755686794
17.11,-98.2686323579371,15.029125318308457,270.6968666497905,288.373702558585,0,9.687343775459846,220.90102607307088,11.032325783337551,19.02322888832635,0.018761053725313958,0.02324906184425096,0.02618300934045748,0.07767118802203006,0.09858363385515072,0.1217100314253706,-1.0071271432003697,0.8608624931801167,-116524346748.91951,0.0,485215704698.7487,0.8444397147451642,-0.1518564982581371,0.3176752255139679,0.40366275923415534,0.09858363385515072,0.1217100314253706,-1.0071271432003697
17.3,-98.26674951353539,15.031448627081271,270.7236344294899,288.3983091949337,0,9.681944023696332,221.13542212361364,11.032319091392628,19.024121147649666,0.009909707377400207,0.012227940909547597,0.14088305104953658,0.0973326906569472,-0.04658603341007206,-0.05800589965633309,0.6036844300477807,0.7636565938359915,-116524346748.91951,0.0,485215704698.7487,0.6727833058289201,-0.28690617689288006,0.601806313228507,0.32074387042768787,-0.04658603341007206,-0.05800589965633309,0.6036844300477807
17.41,-98.26486024162222,15.033770347208344,270.7260634698026,288.40006666263747,0,9.67836121181027,221.26811091169353,11.03231848413255,19.02420211566009,0.017175199210648653,0.021106546609753557,0.02208218466121677,0.12297219269215595,0.0660499257568044,0.08071459727460006,-1.0800078762574583,0.8957508708356225,-116524346748.91951,0.0,485215704698.7487,0.8511413805583501,-0.1435576714536855,0.30190028347045916,0.4047292479034323,0.0660499257568044,0.08071459727460006,-1.0800078762574583
17.6,-98.26296429386014,15.03609036749126,270.75296185463577,288.42479178880177,0,9.671838252821594,221.49206935496062,11.032311759536341,19.02509872848786,0.00997867243199828,0.012210633067978292,0.14157044649024053,0.12015810476107358,-0.03787645672973855,-0.046820597588290554,0.628885588573805,0.9257016391434909,-116524346748.91951,0.0,485215704698.7487,0.6733394993729913,-0.2857272751590944,0.6025012698918695,0.31932125296161107,-0.03787645672973855,-0.046820597588290554,0.628885588573805
17.7,-98.26106185205556,15.038408666768419,270.778374169965,288.44811999673664,0,9.66823268727574,221.6072705583609,11.032305406457509,19.0259458056655,0.019024418045745912,0.023182992771584802,0.2541231532922038,0.13635914253866593,0.09045745613747824,0.10972359703606745,1.1255270680196567,1.168879476173735,-116524346748.91951,0.0,485215704698.7487,0.6756315597208176,-0.28406958198335713,0.6005871831239289,0.31956455305349557,0.09045745613747824,0.10972359703606745,1.1255270680196567
17.9,-98.25915313815798,15.040725223916178,270.7825354038452,288.45149691139414,0,9.6599671980035,221.83212031178587,11.032304366149038,19.026084513461505,0.009543569487888738,0.011582785738797383,0.02080616940105536,0.1568148232659828,-0.04740424278928604,-0.05800103516393731,-1.1665849194557463,1.0418224726021523,21.991227671453554,0.0,-0.08329755117319734,0.8051271202706685,-0.19435649713424016,0.4119700483321508,0.37983753303692086,-0.04740424278928604,-0.05800103516393731,-1.1665849194557463
18.01,-98.25723782425887,15.043039907849968,270.80685464642,288.4737949242693,0,9.655308430259389,221.95262027996372,11.032298286338394,19.026895154880666,0.017411944537441226,0.0210425812162699,0.22108402340718197,0.1368343783949531,0.07153068226865704,0.08599814070429328,1.8207077636920106,1.13004843499161,7.488147242156356,0.0,0.08110751264447061,0.6779160055985395,-0.2819775893170415,0.5993208130984106,0.31895625321246013,0.07153068226865704,0.08599814070429328,1.8207077636920106
18.2,-98.25531617259084,15.045352727525426,270.83277208993167,288.4975913812597,0,9.64654597866023,222.15543897824057,11.032291806977517,19.02775906966439,0.010113956147512647,0.012172735133989853,0.1364075974298614,0.11107369146608656,-0.038410465210150874,-0.04668340043305343,-0.44566539988063997,1.0004384834801021,7.488147242156356,0.0,0.08110751264447061,0.6760111931481868,-0.28254981341437435,0.6021142431611227,0.31722690280046456,-0.038410465210150874,-0.04668340043305343,-0.44566539988063997
18.3,-98.25338835552674,15.04766365193951,270.8357792287307,288.4998783624659,0,9.641546575953903,222.25947103435806,11.032291055192816,19.027859307624357,0.019278170641001405,0.023109244140843924,0.030071387990346494,0.11437805891432011,0.09164214493488629,0.10936509006853916,-1.0633620943951338,0.9623589277044446,7.488147242156356,0.0,0.08110751264447061,0.8368247176508191,-0.1621511499704755,0.3464350326794344,0.39168120279671115,0.09164214493488629,0.10936509006853916,-1.0633620943951338
18.5,-98.25145410557866,15.049972560131648,270.8610167592846,288.52303254297533,0,9.631160573543445,222.46189603116898,11.032284745810179,19.02870055864282,0.00967124974039283,0.011544540960688507,0.12618765276954536,0.09665151242746418,-0.048034604503043046,-0.05782351590077729,0.48058132389599606,0.7024005998246421,7.488147242156356,0.0,0.08110751264447061,0.6776395147935624,-0.28081231140404966,0.6015738876242283,0.3163194453126976,-0.048034604503043046,-0.05782351590077729,0.48058132389599606
18.6,-98.24951378539703,15.05227948118485,270.86396658018765,288.5252614039187,0,9.625582231959704,222.56027997522926,11.032284008354953,19.028798886006257,0.019403201816316776,0.023069210532024827,0.029498209030407032,0.08131681140938937,0.09731952075923808,0.11524669571336156,-0.9668944373913695,0.776617656755676,7.488147242156356,0.0,0.08110751264447061,0.8394128782228519,-0.15941286839608634,0.3423824680515943,0.39082963402774173,0.09731952075923808,0.11524669571336156,-0.9668944373913695
18.8,-98.24756708776967,15.05458428422682,270.8906227921698,288.5497434817198,0,9.614058616464888,222.75136889183602,11.032277344301956,19.02968742640566,0.009733488136802783,0.011524015209847291,0.13328105991064423,0.11559218762203968,-0.04834856839757014,-0.05772597661088789,0.5189142544011879,0.7235316748011712,7.488147242156356,0.0,0.08110751264447061,0.6764408733307455,-0.2805548032349479,0.6042009076297209,0.3140987272956694,-0.04834856839757014,-0.05772597661088789,0.5189142544011879
18.9,-98.24561443562082,15.056887028431085,270.89588279810465,288.55413689598015,0,9.607930057710307,222.8440653715732,11.032276029300473,19.029862759936822,0.019526521488444776,0.02302744204264733,0.05260005934872082,0.17709142104772066,0.09793033351642201,0.11503426832800283,-0.8068100056192513,1.0675644986276387,7.488147242156356,0.0,0.08110751264447061,0.7852577478800248,-0.2105937542089909,0.4546913898936131,0.36369806163790436,0.09793033351642201,0.11503426832800283,-0.8068100056192513
19.1,-98.24365557201025,15.059187573018116,270.9385601030191,288.59365610007507,0,9.595425463610212,223.02374177495693,11.032265359974245,19.031285336767304,0.009794318052840228,0.011502722935157032,0.2133865245721692,0.24379389673212293,-0.04866101717802204,-0.05762359553745067,0.8039323261172304,0.9319198781502394,7.488147242156356,0.0,0.08110751264447061,0.6642117723423089,-0.28585858238628764,0.618848540205681,0.306812771317115,-0.04866101717802204,-0.05762359553745067,0.8039323261172304
19.2,-98.2416906301323,15.061485867256454,270.981912714101,288.63380805544733,0,9.589110074511659,223.11071371301512,11.032254521821475,19.032730423803365,0.019649418779579684,0.02298294238338321,0.4335261108190117,0.29977576969010894,0.09855100726739666,0.11480219448226422,2.201395862468472,0.908031324388619,7.488147242156356,0.0,0.08110751264447061,0.6641962905096429,-0.28539567018170237,0.6194834563667937,0.30599484701971325,0.09855100726739666,0.11480219448226422,2.201395862468472
19.4,-98.23971996331483,15.063782090463828,271.05698944070764,288.7037437131694,0,9.575799922451477,223.27890573501014,11.032235752639822,19.03523298135692,0.00985333408735304,0.011481116036868896,0.3753836330332674,0.3491187688586525,-0.0489804234611334,-0.05750913173257177,-0.2907123889287227,0.850881937040375,7.488147242156356,0.0,0.08110751264447061,0.6553170776640626,-0.28926325921735296,0.6294370154985139,0.30115666705074084,-0.0489804234611334,-0.05750913173257177,-0.2907123889287227
19.5,-98.2377431050184,15.066075882008255,271.0982826943736,288.7419603948975,0,9.568902256951475,223.36011834377368,11.032225429326406,19.036609423145787,0.019768582964303224,0.022937915444262942,0.41293253665969,0.33817518627148835,0.09915248876950043,0.11456799407393883,0.3754890362642207,0.9923168315002474,7.488147242156356,0.0,0.08110751264447061,0.6659047675219749,-0.28362573478941455,0.6188608245101217,0.30518611214031593,0.09915248876950043,0.11456799407393883,0.3754890362642207
19.7,-98.23576058883525,15.06836746130918,271.1596807888186,288.79905270258416,0,9.554338420270977,223.5167587098137,11.032210079802795,19.038656026293953,0.00991258091573858,0.011457896504625293,0.30699047222498277,0.322098052280155,-0.0492800102428234,-0.05740009469818845,-0.529710322173538,0.7491592022480861,7.488147242156356,0.0,0.08110751264447061,0.6587506309539276,-0.28665789760958105,0.6270415695300136,0.30115399057159187,-0.0492800102428234,-0.05740009469818845,-0.529710322173538
19.8,-98.2337718284883,15.070656347838575,271.1753096399552,288.8131700056833,0,9.54662900696317,223.59217950532195,11.03220617259001,19.03917698799851,0.019887603469470324,0.02288886529395707,0.15628851136568533,0.31136348437678507,0.09975022553731602,0.11430968789331612,-1.507019608592953,0.7622640189137343,7.488147242156356,0.0,0.08110751264447061,0.7020084671500353,-0.2639016846656635,0.5789002366073516,0.3200227006576796,0.09975022553731602,0.11430968789331612,-1.507019608592953
20.0,-98.2317774878303,15.072942961122063,271.2460833658961,288.8790637260971,0,9.531055687310324,223.73720556134907,11.032188479158526,19.041536112196535,0.009971703290005997,0.011433066417438948,0.3538686297045514,0.3122971772056863,-0.04957950089732181,-0.057278994382590806,0.9879005916943339,0.7803047114597239,7.488147242156356,0.0,0.08110751264447061,0.6573213443844587,-0.2863656328007241,0.6297451157093603,0.29890544292042115,-0.04957950089732181,-0.057278994382590806,0.9879005916943339
20.1,-98.22977734084272,15.075226930740032,271.2781414869612,288.90860435796054,0,9.522962541520014,223.80680437628936,11.03218046462826,19.042604716232038,0.020001469875836335,0.02283969617968363,0.32058121065119394,0.3347697327895168,0.10029766585830195,0.11406629762244518,-0.33287419053357,0.7037034820476682,7.488147242156356,0.0,0.08110751264447061,0.6736487044122663,-0.2779462267973485,0.6128668732253629,0.30551188807599444,0.10029766585830195,0.11406629762244518,-0.33287419053357
20.3,-98.22777144163489,15.07750840632873,271.36182832568534,288.9866228986935,0,9.506429765559973,223.94015811381485,11.032159542918578,19.045394277522846,0.0100294960391523,0.011407377943495374,0.41843419362067075,0.3957710345495172,-0.04985986918342035,-0.05716159118094148,0.48926491484738577,0.4823112599316229,7.488147242156356,0.0,0.08110751264447061,0.6558437576585675,-0.28608675793730914,0.6324681665486915,0.2966603289550969,-0.04985986918342035,-0.05716159118094148,0.48926491484738577
20.4,-98.22575984444295,15.0797871575814,271.40369080682416,289.0253678508209,0,9.497894209975001,224.00390710958922,11.032149077298294,19.046789693560804,0.020115971919381512,0.022787512526694573,0.4186248113882219,0.4151473422655214,0.10086475880229427,0.11380134583199442,0.0019061776755114185,0.3021995220844871,7.488147242156356,0.0,0.08110751264447061,0.6674839978133673,-0.2800504973280041,0.6207755925234351,0.3011220605279533,0.10086475880229427,0.11380134583199442,0.0019061776755114185
20.51,-98.22374226362895,15.082063274249363,271.4546631573614,289.07266617021537,0,9.488348336249008,224.0717720395872,11.032136334210659,19.048488771912044,0.01834164376361919,0.020691969708750063,0.4633850048838252,0.4062907178426,-0.016130255961475215,-0.01905038925404048,0.4069108499600193,0.4024990936024116,1235010884334.017,0.0,-223208760342.45303,0.6637781421456926,-0.2813438655562921,0.6253501487399664,0.29863254811617157,-0.016130255961475215,-0.01905038925404048,0.4069108499600193
20.7,-98.22171948367985,15.08433670614316,271.54031340651494,289.1525292939755,0,9.471331260063305,224.1834088667562,11.03211492164837,19.051343780217167,0.010646210258426707,0.011965431019988596,0.45079078501873876,0.530654049292826,-0.04050228160627671,-0.04592915099348195,-0.06628536771098219,1.8293126685602943,1235010884334.017,0.0,-223208760342.45303,0.6564735758928046,-0.2843296854932993,0.6335640896593935,0.29461096109252205,-0.04050228160627671,-0.04592915099348195,-0.06628536771098219
20.9,-98.21969095920643,15.086607253133614,271.5957763857436,289.2040441645088,0,9.452386930748661,224.29326263823438,11.032101055903563,19.053192546191454,0.010142622367084223,0.011352734952270222,0.27731489614325355,0.5176799984545479,-0.002517939456712429,-0.0030634803385918793,-0.8673794443774291,3.1719668415212565,1235010884334.017,0.0,-223208760342.45303,0.6628682898237173,-0.28082971849611404,0.6274772925056933,0.2966690866020558,-0.002517939456712429,-0.0030634803385918793,-0.8673794443774291
21.0,-98.21765682494254,15.088874915152994,271.6997844287526,289.3011495259187,0,9.443416577585273,224.3452378494807,11.032075053892811,19.05665948095842,0.020341342638942873,0.02267662019379525,1.0400804300900142,0.4895786749943836,0.10198720271858505,0.11323885241524866,7.6276553394674975,3.1242569571161996,1235010884334.017,0.0,-223208760342.45303,0.6550883948938496,-0.28396080469538565,0.636182331731435,0.2923995503842355,0.10198720271858505,0.11323885241524866,7.6276553394674975
21.1,-98.21561738574384,15.091139702196049,271.7351389714996,289.3337791337787,0,9.433587048984613,224.39524216856668,11.032066215257124,19.057837965716654,0.020394391986968394,0.02264787043054962,0.3535454274702892,0.43705699897222594,0.000530493480255203,-0.0002874976324562754,-6.865350026197152,3.38262211940199,1235010884334.017,0.0,-223208760342.45303,0.673150753861833,-0.27496211342391297,0.6176187465684536,0.29968480549389437,0.000530493480255203,-0.0002874976324562754,-6.865350026197152
21.3,-98.21357254658702,15.09340164432117,271.7998076522006,289.39393919937885,0,9.413353756789146,224.4893293283274,11.03205004808695,19.059993588406687,0.010224195784118742,0.011309710625608855,0.32334340350502205,0.4902666231231098,-0.05085098101424844,-0.05669079902470403,-0.15101011982633636,3.5670540827868136,1235010884334.017,0.0,-223208760342.45303,0.6613045025254218,-0.2801230601678861,0.6308577632106718,0.2936424844919607,-0.05085098101424844,-0.05669079902470403,-0.15101011982633636
21.4,-98.2115223025687,15.095660501651473,271.81840581133497,289.4108287828647,0,9.402844921386642,224.53340798736608,11.032045398547165,19.0606135270445,0.02050244018320812,0.022588573303022257,0.18598159134342437,0.3381498904123905,0.10278244399089596,0.11278862677413642,-1.3736181216160062,2.3052587394132606,1235010884334.017,0.0,-223208760342.45303,0.6969100543511071,-0.26212416520342136,0.5919120543123,0.3086218043504692,0.10278244399089596,0.11278862677413642,-1.3736181216160062
21.6,-98.20946664890448,15.09791637437587,271.9271190916509,289.51235641297734,0,9.382038112473875,224.61562566862588,11.032018220227087,19.06423730305503,0.010278268321073224,0.01127936362198751,0.5435664015797592,0.6101692918360826,-0.05112085931067375,-0.05654604840517293,1.7879240511816488,3.8026621188102263,-2400937003466.57,0.0,223466116379.55975,0.6558407732584881,-0.281644510252341,0.637687225356815,0.28966230785719077,-0.05112085931067375,-0.05654604840517293,1.7879240511816488
21.8,-98.20740574092794,15.100169082750208,271.9830243381707,289.56428505053736,0,9.360038138624455,224.68991180060564,11.032004243915457,19.066100811272356,0.010304539882710665,0.011263541871686695,0.2795262325989266,0.7749856841623836,0.00013135780818720547,-7.910875150407761e-05,-1.3202008449041678,4.800182216383489,1910446114655.0183,0.0,444861685603.22217,0.6645188375640382,-0.27716319936750144,0.6292171851419417,0.2927131861754119,0.00013135780818720547,-7.910875150407761e-05,-1.3202008449041678
21.9,-98.20533969408962,15.102418807098358,272.1544924981951,289.72476522590654,0,9.350226709833542,224.72407635352403,11.03196137687545,19.071816416606502,0.02066046838322721,0.022497243481503428,1.7146816002440712,1.0432495258319854,0.10355928500516767,0.11233701609816972,14.35155367645175,4.906234075341445,2982871906781.0454,0.0,221810995405.08795,0.6531191229425866,-0.28188478899072883,0.6415883057185371,0.28695090685965047,0.10355928500516767,0.11233701609816972,14.35155367645175
22.01,-98.20326816395598,15.104665167813293,272.2807118213085,289.8427484306482,0,9.338622115317586,224.75936147849427,11.031929822044672,19.07602372737695,0.018832092123943257,0.02042146104486109,1.147448391939871,1.294184821265731,-0.016621602357126414,-0.018870749424020748,-5.156665530038044,5.086169725660081,1491435953390.5356,0.0,110905497702.38338,0.6554636673333196,-0.28030528135817667,0.6397872501745235,0.28717347468523313,-0.016621602357126414,-0.018870749424020748,-5.156665530038044
22.21,-98.20119163620855,15.106908265358177,272.58665375938295,290.12958574376216,0,9.317787581159998,224.81734819391818,11.031853336560154,19.086221791979433,0.01038263873716975,0.011215487724420865,1.529709690372277,1.6818002989685759,-0.04224726693386768,-0.046029866602201285,1.9113064921620373,5.2642498881143975,0.058920304586715086,0.0,-0.27829616036801147,0.651174449225425,-0.2817185305079548,0.6447009792795688,0.2845472782515551,-0.04224726693386768,-0.046029866602201285,1.9113064921620373
22.31,-98.19910998664272,15.109148100267497,272.7664734665825,290.29795143245576,0,9.307399413942523,224.84335436165958,11.031808381633354,19.092215782219416,0.0208164956582384,0.0223983490931983,1.7981970719955982,1.8412820057934418,0.10433856921068871,0.11182861368777675,2.684873816233268,2.6881314206115956,0.21770742698030374,0.0,-0.2777564723892118,0.6537095341944297,-0.28009135242265887,0.6426878443272167,0.28489474188791697,0.10433856921068871,0.11182861368777675,2.684873816233268
22.5,-98.19702316116688,15.111384523148114,273.18788619936754,290.6933615788289,0,9.288025255769519,224.88727439718247,11.031703028450158,19.106262873312254,0.010983291978118884,0.011770646740092231,2.217961751500139,2.1099808230485557,-0.051753703579576045,-0.05593527554266315,2.2092877868659886,1.7015447254482374,0.32760653297149195,0.0,-0.2233466609828268,0.6508534017260272,-0.2808305039117221,0.6461463220332032,0.2828763122944563,-0.051753703579576045,-0.05593527554266315,2.2092877868659886
22.7,-98.19493113580133,15.113617494680373,273.69034931649816,291.16502750764397,0,9.267613398223489,224.92572553980804,11.031577412670876,19.123011643883274,0.01046012682778045,0.0111648576612922,2.512315585653093,2.4415614109609467,-0.0026158257516921764,-0.003028945394000168,1.471769170764777,2.866660803707937,0.12965307894384653,0.0,-0.12063253988130115,0.6507597823626826,-0.28034521065636014,0.6468089059681573,0.28205763184425725,-0.0026158257516921764,-0.003028945394000168,1.471769170764777
22.81,-98.19283424667726,15.115847135619179,273.9643728790383,291.4220292617351,0,9.256101927167604,224.94346972623535,11.03150890678024,19.132145762634607,0.019062628400557943,0.02026946308005323,2.491123295819568,2.6762281388540856,0.07820455975252306,0.08276914017055524,-0.19265718030477627,2.545381058261591,278049461728.3643,0.0,110143254494.51521,0.6526692886707715,-0.2790137486826567,0.6454198872851424,0.2821476506527644,0.07820455975252306,0.08276914017055524,-0.19265718030477627
22.9,-98.19073241003585,15.11807328679509,274.25124855035875,291.6911438534856,0,9.24717363829193,224.9561900051043,11.03143718786241,19.14170828501196,0.023353740460171024,0.02473501306567986,3.187507459116058,2.536174048657176,0.04767902288458987,0.04961722206251821,7.737601814405459,3.5573395130812466,556098923456.6411,0.0,220286508989.0956,0.6527846142419648,-0.2784517230510092,0.6458551012761039,0.28143928918068106,0.04767902288458987,0.04961722206251821,7.737601814405459
23.1,-98.18862546222707,15.120295819115398,274.84559879614056,292.249435745269,0,9.226466544080347,224.97866237724656,11.031288600300964,19.161519959871352,0.010534739043919068,0.01111266160154207,2.971751228909014,3.2428625447036246,-0.06409500708125887,-0.06811175732068799,-1.0787811510352043,12.319145581835375,297984630183.9162,0.0,443238015487.03516,0.6512836326605033,-0.2785715101493026,0.6479364234542814,0.28001059751900453,-0.06409500708125887,-0.06811175732068799,-1.0787811510352043
23.3,-98.18651360970878,15.122514813565223,275.1491332843781,292.53431842479694,0,9.20226010777742,224.99313866120556,11.031212716678905,19.171637776145936,0.010559262591414192,0.011094972249123853,1.5176724411875906,3.3011431314283426,0.00012261773747562115,-8.844676209108743e-05,-7.270393938607144,15.537510430645327,297984630183.9162,0.0,443238015487.03516,0.6531560581035414,-0.27724674075475064,0.6465975864321439,0.2800588683181407,0.00012261773747562115,-8.844676209108743e-05,-7.270393938607144
23.4,-98.18439704904573,15.124730211208565,275.7537059853818,293.1024388375486,0,9.19446664599207,224.9973774103485,11.031061573503655,19.191790199512727,0.021165606630547014,0.022153976433419348,6.045727010037596,3.1123626983237385,0.10606344039133048,0.1105900418429573,45.28054568850102,15.06848846419858,297984630183.9162,0.0,443238015487.03516,0.6517980118925961,-0.27732614232313524,0.6485030917544435,0.2787351833944809,0.10606344039133048,0.1105900418429573,45.28054568850102
23.6,-98.18227546690838,15.126941823189416,276.31023387178107,293.62549093540974,0,9.171923870258162,224.99985518102872,11.030922441532054,19.210341129059366,0.010607910686743898,0.011058059904254078,2.7826394319961483,3.0801039739630602,-0.05278847971901483,-0.05547958264582556,-16.315437890207008,15.985427652843171,297984630183.9162,0.0,443238015487.03516,0.6522240445542614,-0.2766041480203458,0.6486422612311356,0.2781315479196466,-0.05278847971901483,-0.05547958264582556,-16.315437890207008
23.7,-98.18014956007205,15.129149670732826,276.53459161852595,293.8360313151239,0,9.159901392705136,224.9980940924433,11.030866352095368,19.21781972061753,0.021259068363264532,0.02207847543410016,2.2435774674489064,3.311900209777361,0.10651157676520862,0.11020415529846316,-5.390619645472533,14.66586778676679,297984630183.9162,0.0,443238015487.03516,0.6551235795308289,-0.27486435685437494,0.646234995904237,0.27864495499182323,0.10651157676520862,0.11020415529846316,-5.390619645472533
23.8,-98.17801885541576,15.13135395514597,276.81562460289035,294.09993417744687,0,9.148306213142776,224.99433309597197,11.030796093849277,19.22718748676301,0.02130704656295249,0.022042844131444327,2.8103298436439728,2.642466330376666,0.0004797819968795706,-0.00035631302655831694,5.667523761950583,5.662972570371911,297984630183.9162,0.0,443238015487.03516,0.6545024917938833,-0.27462175285712825,0.6474015764866692,0.2776338953655537,0.0004797819968795706,-0.00035631302655831694,5.667523761950583
24.0,-98.17588365992125,15.133554237819219,277.3509620044733,294.60326665039236,0,9.124435981147034,224.98081213686774,11.03066225949888,19.245032066815778,0.01067597747251629,0.01100141336624287,2.676687007914618,2.7627371405607595,-0.05315534545218119,-0.055207153826007486,-0.6682141786467756,3.085560335414572,297984630183.9162,0.0,443238015487.03516,0.6530942297297687,-0.27470374316041263,0.6493645307762378,0.2762815353169563,-0.05315534545218119,-0.055207153826007486,-0.6682141786467756
24.1,-98.173743780672,15.135750850227238,277.6208081052008,294.8567245539737,0,9.11231926788499,224.9710527751641,11.0305947979737,19.254026936840027,0.02139879249256152,0.021966124080190184,2.698461007275303,2.8607972992025172,0.10722815020045078,0.1096471071394716,0.21773999360684607,3.3075332694989554,297984630183.9162,0.0,443238015487.03516,0.6551887666362938,-0.2732991464515877,0.6477852802516908,0.2764226606334656,0.10722815020045078,0.1096471071394716,0.21773999360684607
24.3,-98.17159872485202,15.137943403930032,278.29760828932797,295.4934498533837,0,9.089057586037809,224.94553845617358,11.030425597927668,19.2765869429776,0.010725279099901324,0.010962768513973525,3.384000920635811,2.9587124324029777,-0.053367566963301166,-0.055016777831083497,3.427699566802552,2.7403576203402857,297984630183.9162,0.0,443238015487.03516,0.6532655104110778,-0.2735486438647433,0.6503115443211527,0.27479120740982843,-0.053367566963301166,-0.055016777831083497,3.427699566802552
24.4,-98.16944980974502,15.140132160574021,278.57099984343995,295.7503447699791,0,9.07657999510314,224.9297846328522,11.03035725003914,19.285699994781332,0.021489151070000392,0.021887566439887006,2.7339155411198717,3.0448632174980927,0.10763871970099298,0.10924797925913714,-6.500853795159532,2.956903561363336,297984630183.9162,0.0,443238015487.03516,0.6556792272695599,-0.2720562602458776,0.6483640768193247,0.27512572776540756,0.10763871970099298,0.10924797925913714,-6.500853795159532
24.6,-98.16729581273317,15.142317141893098,279.2310072564529,296.3714951695989,0,9.052371332556314,224.8922871593628,11.030192248185886,19.307700241881765,0.01076998505922673,0.01092490659538632,3.3000370650648376,3.0941770288863975,-0.053595830053867546,-0.05481329922250265,2.8306076197247894,3.0748210327414167,14716039269.277271,0.0,-4967109206.452677,0.6538256135093068,-0.27229367799725485,0.6507932166146794,0.27356244122727236,-0.053595830053867546,-0.05481329922250265,2.8306076197247894
24.71,-98.16513784129627,15.144497889709715,279.57281681961564,296.69295577783186,0,9.03862899354893,224.8682612775204,11.030106795795096,19.319093893987187,0.01961792215364653,0.019824980151061027,3.107359665115584,2.74839665996851,0.08043579176745314,0.08090975959704322,-1.7516127268114043,3.6792073016394538,6564895263.24408,0.0,214427943801.07144,0.6554909506271263,-0.2710870215363921,0.6496338642243445,0.273531136899293,0.08043579176745314,0.08090975959704322,-1.7516127268114043
24.9,-98.1629754830105,15.146674715935927,280.13239722650997,297.21970238612994,0,9.014231019021729,224.82107954624416,11.029966900693372,19.337746574217,0.011380833083015006,0.011456980137954893,2.945160036285965,3.4135756482805037,-0.043353100371745376,-0.04404210533213808,-0.8536822569980063,11.18841246981955,213832999554.4191,0.0,-212993284664.7473,0.6546167745892215,-0.2709409052037174,0.6510372291554963,0.2724305977076152,-0.043353100371745376,-0.04404210533213808,-0.8536822569980063
25.1,-98.16080886554744,15.148847172574449,280.4634097730513,297.53110121350846,0,8.985495933958338,224.76364584287256,11.029884147556738,19.348780325768374,0.010833087315304924,0.0108622831926118,1.65506273270663,3.314476219371638,-0.00273872883855037,-0.0029734847267154202,-6.450486517896582,13.87749076029753,432938272259.6787,0.0,3124675617.061377,0.6561189733258159,-0.26977854669347784,0.650065519877862,0.27229074250102114,-0.00273872883855037,-0.0029734847267154202,-6.450486517896582
25.2,-98.15863755667313,15.151015791719738,281.0694002574889,298.1017932982084,0,8.975355301623052,224.7319440989134,11.029732649935628,19.368980008582962,0.021713088743098758,0.02168619145289032,6.059904844376107,3.378156061288582,0.10880001427794066,0.1082390826027875,44.048421116695714,14.76923071002565,432938272259.6787,0.0,3124675617.061377,0.655017545982764,-0.269710082470956,0.6517088741109651,0.27107937817776917,0.10880001427794066,0.1082390826027875,44.048421116695714
25.4,-98.1564625742468,15.153180195559022,281.6303069804064,298.63010535611863,0,8.94821553070147,224.66257787119167,11.029592423254899,19.38767689934688,0.01087491213162654,0.010822019196421489,2.8045336145874087,3.0775186274586064,-0.054190883057361285,-0.05432086128234435,-16.27685614894355,16.581917885136324,432938272259.6787,0.0,3124675617.061377,0.6553961407436408,-0.26906259320856873,0.6518206280612489,0.27053851568318565,-0.054190883057361285,-0.05432086128234435,-16.27685614894355
25.5,-98.15428335622003,15.155340066373384,281.9728816447214,298.9525943301523,0,8.935096251230048,224.6249164703611,11.02950677958882,19.39909605482405,0.02179218026768095,0.021598708143617223,3.4257466431500427,3.96642482572814,0.10917268136054256,0.10776688947195581,6.212130285626253,24.60717506614021,432938272259.6787,0.0,3124675617.061377,0.6568046977085733,-0.26793302953427767,0.6509484466233183,0.27034348631180766,0.10917268136054256,0.10776688947195581,6.212130285626253
25.7,-98.15210044063558,15.157495626538772,282.2612687556854,299.22401029019454,0,8.904557128310831,224.54364546385537,11.029434682811079,19.408708958522848,0.010914577922278606,0.010777800826939948,1.4419355548201958,3.3264972345311605,-0.05438801172701192,-0.05410453658338657,-9.91905544164927,18.882504273089175,432938272259.6787,0.0,3124675617.061377,0.6576012093760779,-0.2671050957113082,0.6506429360983361,0.26996163982593724,-0.05438801172701192,-0.05410453658338657,-9.91905544164927
25.8,-98.14991300562627,15.159647178527086,282.8712275208833,299.7988520404318,0,8.893782090320075,224.50003947021156,11.029282193119778,19.429040917362776,0.021874350093042637,0.021515519883141515,6.099587651978508,3.398554827016967,0.10959772170763875,0.10737719056201415,46.57652097158246,16.30486311702174,432938272259.6787,0.0,3124675617.061377,0.6560385718835667,-0.2672198911790037,0.652746847761375,0.26856744906417773,0.10959772170763875,0.10737719056201415,46.57652097158246
26.01,-98.14772167941413,15.161794344907227,283.47189205023255,300.3650593214126,0,8.864007371422817,224.40203165560322,11.029132026987442,19.449063068341083,0.010434886724483651,0.010224601810193648,2.860307282615578,3.3473054867248124,-0.0544736350883759,-0.05376627653784677,-15.42514461601389,15.073849153094624,432938272259.6787,0.0,3124675617.061377,0.6563198102335346,-0.26658651094212515,0.6529761712585196,0.26795159758300724,-0.0544736350883759,-0.05376627653784677,-15.42514461601389
26.1,-98.14552687030911,15.163936668346102,283.7567132559826,300.6332678493352,0,8.851380837055933,224.3573630475999,11.029060821686004,19.45855710853275,0.0243867678335619,0.02380359376527651,3.164680063889596,3.6303702905324053,0.15502090121198078,0.1508776883898098,3.3819197919335364,13.402544142488802,1984972073.7052796,0.0,220406517643.2603,0.6584232229280237,-0.26520104746756196,0.651371296738822,0.26807218750919953,0.15502090121198078,0.1508776883898098,3.3819197919335364
26.2,-98.14332805670811,15.166074601609727,284.07366215271367,300.93183312790677,0,8.837259906350814,224.30585847190287,11.028981584461821,19.469122071757123,0.021988136009980976,0.02137933263625814,3.169488967310553,3.0418713634851793,-0.02398631823580975,-0.02424261129018421,0.04808903420956959,4.687415256839289,1984972073.7052796,0.0,220406517643.2603,0.6583265700951788,-0.2647162333076378,0.6519873211816172,0.2672900595767688,-0.02398631823580975,-0.02424261129018421,0.04808903420956959
26.4,-98.14112566709395,15.168208297564219,284.6451221573353,301.4707293554832,0,8.80809645155065,224.19694427119282,11.028838719460666,19.488170738577843,0.011011948070844864,0.01066847977245548,2.8573000231082903,3.0636366374678343,-0.05488093969568076,-0.05355426431901349,-1.560944721011318,1.7908628129967734,1984972073.7052796,0.0,220406517643.2603,0.6571603148876609,-0.26470224348714266,0.653643446988721,0.26612644934002155,-0.05488093969568076,-0.05355426431901349,-1.560944721011318
26.5,-98.13891917003426,15.170336959176854,284.9608242890851,301.76821893438733,0,8.793669325470615,224.13953948679304,11.028759793927728,19.498694142969505,0.02206497059688641,0.02128661612635666,3.157021317497834,2.721976499787474,0.11053022526041391,0.10618136353901028,2.997212943895395,2.625745706472295,1984972073.7052796,0.0,220406517643.2603,0.6588600598036983,-0.2634347048212337,0.652492665237399,0.2660054505129774,0.11053022526041391,0.10618136353901028,2.997212943895395
26.7,-98.13670926418037,15.172461299517112,285.55465056952715,302.32842365376825,0,8.764157845355884,224.018847306362,11.028611337357617,19.518488352317572,0.0110495292694424,0.010621701701287772,2.969131402210234,3.259708958676927,-0.05507720663722025,-0.053324572125344624,-0.939449576438004,11.417482658393894,1984972073.7052796,0.0,220406517643.2603,0.6576110626521484,-0.2634547395366844,0.6542251907894846,0.26481822110578485,-0.05507720663722025,-0.053324572125344624,-0.939449576438004
26.9,-98.1344958582663,15.174580501757703,285.84594702254924,302.6029619815021,0,8.731257634545745,223.89032966901024,11.028538513244362,19.528198234084975,0.011067029570313065,0.010596011202954652,1.4564822651104288,3.270279920492866,8.750150435332702e-05,-0.0001284524916655987,-7.563245685499053,17.001286702687374,1984972073.7052796,0.0,220406517643.2603,0.6596263668207607,-0.2620917368281227,0.652723816556646,0.2648633553004023,8.750150435332702e-05,-0.0001284524916655987,-7.563245685499053
27.0,-98.1322790411077,15.176695349175596,286.4317689743622,303.155792537939,0,8.719077450211282,223.82314338951878,11.02839205775641,19.54772563247874,0.022168171586116298,0.021148474178928876,5.858219518129802,3.2226626507828344,0.11101142015803075,0.10552462975974074,44.01737253019311,16.418831636721663,1984972073.7052796,0.0,220406517643.2603,0.6581348476190096,-0.26220326765224056,0.6547018600829475,0.26357815384799826,0.11101142015803075,0.10552462975974074,44.01737253019311
27.1,-98.13005855160067,15.178804925153061,286.7227724534966,303.4301447676483,0,8.703863605886283,223.75400942197925,11.028319306886626,19.557425748449887,0.022204895070245496,0.021095759774656088,2.910034791343564,3.2108999125576516,0.0003672348412919694,-0.0005271440427278695,-29.481847267861962,16.26566575397981,1984972073.7052796,0.0,220406517643.2603,0.660139348131146,-0.26082764079139975,0.6532279187058107,0.2635873082518445,0.0003672348412919694,-0.0005271440427278695,-29.481847267861962
27.3,-98.12783486872081,15.180910023178678,287.3065811908001,303.9812553443067,0,8.673204767092841,223.60991079962054,11.0281733547023,19.57688603969334,0.01111841439929155,0.01052549012808161,2.9190436865175786,3.4958521215131126,-0.05543240335476993,-0.05285134823287258,0.045044475870073146,14.785733480294038,1984972073.7052796,0.0,220406517643.2603,0.6586461405650132,-0.2609400259175894,0.6552006215679158,0.26231223740031145,-0.05543240335476993,-0.05285134823287258,0.045044475870073146
27.4,-98.12560747152204,15.183009746848384,287.5976008194355,304.25571255725583,0,8.65774556599126,223.5349525491609,11.02810059979514,19.586586693981186,0.022273971987659045,0.020997236697067215,2.9101962863541697,2.9034748892739506,0.11155557588367733,0.10471746568985829,-0.08847400163409092,5.99729553462636,1984972073.7052796,0.0,220406517643.2603,0.6606483154711439,-0.259558233168378,0.6537358810000885,0.262302734931773,0.11155557588367733,0.10471746568985829,-0.08847400163409092
27.6,-98.12337726913557,15.185104809866482,288.1738574748772,304.79986336404187,0,8.626536653598883,223.37923482686017,11.027956535631281,19.605795249162572,0.011151011932355301,0.010475315090490007,2.88128327720837,2.8926240869891147,-0.055614800276517926,-0.052609608032885294,-0.14456504572899725,0.18768099301932425,10364297483.889088,0.0,109783513865.5061,0.6591707111579502,-0.2596709910764829,0.6556798143411944,0.2610535021990245,-0.055614800276517926,-0.052609608032885294,-0.14456504572899725
27.8,-98.12114388076881,15.187194526046683,288.75313209490827,305.3469846726214,0,8.595060011551368,223.2158053548394,11.027811716976272,19.625104403163608,0.011166941833806772,0.010448580901005792,2.8963731001553685,2.8891480670857406,7.964950725735207e-05,-0.00013367094742107677,0.07544911473499365,0.26143923068981023,19697432234.83909,0.0,217002194845.3811,0.6594199568958987,-0.2590232408887368,0.6559473951593535,0.26039450053825125,7.964950725735207e-05,-0.00013367094742107677,0.07544911473499365
27.9,-98.11890653570428,15.189278979313086,289.0387099196172,305.61644237126757,0,8.579174033712953,223.13120773855115,11.027740322520096,19.63462366398724,0.022373450645290425,0.020844532664022086,2.8557782470892943,2.8772632605772275,0.11206508811483892,0.10395951763016516,-0.4059485306607511,0.2789996968657108,19697432234.83909,0.0,217002194845.3811,0.6614766463217435,-0.25761530740207117,0.6544316657436791,0.2603885455142541,0.11206508811483892,0.10395951763016516,-0.4059485306607511
28.0,-98.11666581329848,15.191358293701231,289.3288641913941,305.89025667943116,0,8.56326494222575,223.0446931867965,11.02766778395215,19.64429547304647,0.02240722405801389,0.020793143881458736,2.9015427177688067,2.582681143196667,0.0003377341272346339,-0.0005138878256334963,0.45764470679511743,1.6888446398173034,19697432234.83909,0.0,217002194845.3811,0.6616780759797524,-0.2569886571664587,0.6547438266743769,0.2597103680781862,0.0003377341272346339,-0.0005138878256334963,0.45764470679511743
28.2,-98.1144228029809,15.193432323359088,289.89904265492737,306.4290052850252,0,8.531146354983381,222.8659287422218,11.027525239336267,19.663301421830912,0.011215051587925058,0.010370148289284878,2.850892317666488,3.1086074868137765,-0.055960862350444354,-0.052114977960869474,-0.25325200051159324,9.909072046016387,19697432234.83909,0.0,217002194845.3811,0.6602109931405548,-0.2570765515927528,0.6566831402946159,0.2584576259473551,-0.055960862350444354,-0.052114977960869474,-0.25325200051159324
28.4,-98.11217578425287,15.19550110254809,290.1807087571993,306.69487446924865,0,8.495889790185657,222.67954380099016,11.0274548228107,19.672690291906644,0.011235093640138456,0.010343895945004214,1.4083305113595708,3.0465510653049868,0.00010021026106699118,-0.00013126172140332006,-7.212809031534613,12.802702993584044,19697432234.83909,0.0,217002194845.3811,0.662288262566005,-0.2556615368110188,0.6551454772509195,0.25844891081294064,0.00010021026106699118,-0.00013126172140332006,-7.212809031534613
28.5,-98.10992655668637,15.197564245644113,290.73330484748254,307.2171515321013,0,8.482289073159915,222.58350394593364,11.027316673788128,19.69111016158275,0.022492275664944508,0.020631430960235935,5.525960902832516,2.9352994352717223,0.11257182024805892,0.10287535015231575,41.17630391472886,13.11306669972151,19697432234.83909,0.0,217002194845.3811,0.6607811699638205,-0.25574080724178716,0.6571415680878478,0.25715723677082825,0.11257182024805892,0.10287535015231575,41.17630391472886
28.7,-98.10767410992321,15.199621767138526,291.2424276773347,307.69838462447365,0,8.448956378632584,222.3857508088605,11.027189393080667,19.708080922577825,0.011262233815827511,0.010287607472063734,2.5456141492608797,2.808265887843693,-0.056150209245585184,-0.05171911744086119,-14.901733767858234,13.319540698777818,19697432234.83909,0.0,217002194845.3811,0.661201218088225,-0.25499999075528335,0.6572510939561246,0.25653255818108217,-0.056150209245585184,-0.05171911744086119,-14.901733767858234
28.8,-98.10541771367363,15.201674301639134,291.47695240059505,307.9197584876395,0,8.432008223328172,222.28404631583962,11.027130761899851,19.715898413353166,0.022563962495780424,0.020525345006081316,2.3452472326033225,2.933253816758109,0.11301728679952752,0.10237737534017437,-2.003669166575544,12.059876192099303,19697432234.83909,0.0,217002194845.3811,0.6637693592399995,-0.25341744839107977,0.6551923628206489,0.25673488716294507,0.11301728679952752,0.10237737534017437,-2.003669166575544
28.9,-98.1031582477154,15.203721373871243,291.69850797337904,308.12887296663075,0,8.414878653080097,222.1804625388317,11.027075373006655,19.723283599112634,0.02259465958232502,0.020470722321093586,2.215555727839889,2.0215940969319144,0.000306970865445982,-0.0005462268498773159,-1.2969150476343627,4.890228088488252,19697432234.83909,0.0,217002194845.3811,0.6642734666888981,-0.25266454837333996,0.655195122061036,0.25616545332232793,0.000306970865445982,-0.0005462268498773159,-1.2969150476343627
29.1,-98.10089634189262,15.205761988678605,292.1051671540734,308.5132569904384,0,8.380107565583263,221.96767563099903,11.02697370821148,19.736838905135777,0.011309529113887445,0.01020307403680739,2.0332959034717812,2.2350053276527198,-0.05642565234218708,-0.05133824142143025,-0.9112991218405256,7.199851753827316,596278900540.5765,0.0,697800361408.2373,0.6624852611849207,-0.25277318612837263,0.6575410438885118,0.25467385160095446,-0.05642565234218708,-0.05133824142143025,-0.9112991218405256
29.3,-98.0986306361147,15.207797781024459,292.2986925033311,308.695876365698,0,8.34302152353511,221.74742791358565,11.026925326874167,19.74328975011104,0.011328528889578178,0.010178961729270278,0.9676267462884914,2.1312801523678284,9.499887845366323e-05,-0.00012056153768555964,-5.328345785916468,8.583855334131496,596278900540.5765,0.0,697800361408.2373,0.665447796249227,-0.25106229418490833,0.6550565105035484,0.2550449430052911,9.499887845366323e-05,-0.00012056153768555964,-5.328345785916468
29.4,-98.0963624603552,15.209827045992474,292.659951284066,309.03734766580277,0,8.3270594822842,221.63451843546756,11.026835012178983,19.755331709468866,0.022681757595109302,0.020292649680158526,3.612587807348936,2.100837964007565,0.11353228705531367,0.10113687950888464,26.44961061060501,8.79859641469925,596278900540.5765,0.0,697800361408.2373,0.6633191642030779,-0.25129035459469595,0.6577545388990653,0.2534162793631855,0.11353228705531367,0.10113687950888464,26.44961061060501
29.6,-98.09409076465074,15.211850358787794,293.0253025614475,309.38273865151166,0,8.291445561402941,221.40315333108774,11.026743674359638,19.767510085381584,0.011358478522254084,0.010116563976598625,1.8267563869076493,1.8599336232375372,-0.05661639536427529,-0.05088042851779878,-8.929157102206307,9.850431398882662,596278900540.5765,0.0,697800361408.2373,0.6635690195807051,-0.25056928856873234,0.6580668029017965,0.25266434413559224,-0.05661639536427529,-0.05088042851779878,-8.929157102206307
29.7,-98.09181601909992,15.213869194737974,293.23163560289436,309.5775481267144,0,8.273820013931235,221.28470798768143,11.026692091099276,19.77438785342981,0.022747455508210154,0.020188359501798633,2.06333041446844,2.385294938051445,0.11388976985956313,0.10071795525200222,2.365740275607959,14.31631139869209,596278900540.5765,0.0,697800361408.2373,0.6658992308523465,-0.24917851205966482,0.6561560221974825,0.2528785439928857,0.11388976985956313,0.10071795525200222,2.365740275607959
29.9,-98.0895384438622,15.215882489294023,293.39737397806874,309.73391756358336,0,8.235999163953377,221.04231803929207,11.026650656505483,19.779912465935624,0.0113878761886355,0.010066472780243566,0.8286918758719283,2.0541860748203247,-0.05679789659787347,-0.05060943360777552,-6.173192692982581,10.663684386604345,596278900540.5765,0.0,697800361408.2373,0.6673298608324594,-0.24807397456494926,0.6552024185506864,0.2526656896181404,-0.05679789659787347,-0.05060943360777552,-6.173192692982581
30.0,-98.08725743915677,15.217888648031318,293.7568164588709,310.07379996202525,0,8.219808180708444,220.91838420715567,11.026560795885281,19.791893881962363,0.022810047054235515,0.0200615873729501,3.5944248080215346,2.021896686924973,0.11422170865599854,0.09995114592706392,27.65732932149567,9.462608867051703,596278900540.5765,0.0,697800361408.2373,0.6643970586805868,-0.24849428781819902,0.6588058592981483,0.2506032264212478,0.11422170865599854,0.09995114592706392,27.65732932149567
30.2,-98.0849732352615,15.219889146650647,294.1482390194317,310.4440263854839,0,8.184068900255577,220.6650663675043,11.02646294024514,19.804941300647723,0.011421019476358691,0.010002493096648059,1.9571128028039266,1.9360959761903522,-0.05694513788938432,-0.05029547138151039,-8.186560026088069,9.05013818287347,596278900540.5765,0.0,697800361408.2373,0.664430594557807,-0.24789054184039733,0.6592964077691177,0.24982095785656297,-0.05694513788938432,-0.05029547138151039,-8.186560026088069
30.3,-98.0826868825118,15.221885350979138,294.31474863610697,310.6011759869335,0,8.165869863734368,220.53569361851822,11.026421312840974,19.810491621203564,0.022863527497065335,0.01996204328490208,1.6650961667528226,2.0435032130475284,0.11442508020706481,0.0995955018825388,-2.9201663605109993,8.084320697072721,596278900540.5765,0.0,697800361408.2373,0.6680645829870773,-0.24607742741930078,0.6559979598640832,0.25060384938616154,0.11442508020706481,0.0995955018825388,-2.9201663605109993
30.4,-98.08039788129945,15.223875806971272,294.4781755874701,310.7554130509475,0,8.147617728507905,220.40451928982168,11.026380456103132,19.815939186249004,0.02289001212346924,0.019904559921340305,1.6342695136313872,1.4444879133732544,0.00026484626403905235,-0.0005748336356177619,-0.30826653121436054,4.087215646398527,596278900540.5765,0.0,697800361408.2373,0.66842426872825,-0.24537914238007846,0.6561326946758956,0.2499759197148183,0.00026484626403905235,-0.0005748336356177619,-0.30826653121436054
30.6,-98.07810532207162,15.225859130709816,294.7513322543057,311.01364824638114,0,8.110517626063595,220.13678929290208,11.026312166936423,19.825044408476856,0.011462796139127655,0.009916618692722283,1.3657833341778576,1.1654472956510575,-0.05713607992170711,-0.0499397061430894,-1.3424308972676289,2.488114306755866,596278900540.5765,0.0,697800361408.2373,0.6662881260867685,-0.24547157242519987,0.6589349087382103,0.24821085031289172,-0.05713607992170711,-0.0499397061430894,-1.3424308972676289
30.7,-98.07581120532963,15.227837848406827,294.81120331960204,311.06976290194547,0,8.091175055477708,220.00024552374597,11.026297199170099,19.827040110653403,0.022941167419930287,0.01978717697010566,0.5987106529636449,0.8437841009779108,0.11478371280802876,0.09870558277383587,-7.6707268121422905,2.410062978622236,596278900540.5765,0.0,697800361408.2373,0.6793466042481314,-0.24004691240805462,0.6458397805925424,0.25250078998701986,0.11478371280802876,0.09870558277383587,-7.6707268121422905
30.91,-98.07351368162792,15.2298104364046,294.92917786854395,311.1809460265916,0,8.050433925457158,219.70772426727808,11.026267705532863,19.83097259561813,0.010940589055778736,0.00939327617987351,0.561783566390007,0.5646855418975603,-0.05714561125786429,-0.04949476566777194,-0.1758432693982748,2.713907065128857,596278900540.5765,0.0,697800361408.2373,0.6715371451921852,-0.24242942617855925,0.6545214041650068,0.24873191881970425,-0.05714561125786429,-0.04949476566777194,-0.1758432693982748
31.11,-98.07121483157289,15.231777711176614,294.9401807885052,311.19074612581164,0,8.010577571516478,219.42189622015724,11.026264954802873,19.83133935961684,0.011494250275134774,0.009836373860068227,0.055014599806213677,0.34204672683683085,0.002768306096780196,0.0022154884009735988,-2.5338448329189758,2.475449949775521,10.355399582987703,0.0,0.20222368184594383,0.7460520910108365,-0.21007775785581292,0.5685887330286734,0.27564554381575074,0.002768306096780196,0.0022154884009735988,-2.5338448329189758
31.21,-98.06891204582182,15.23373903932854,294.9638944690409,311.2125918971033,0,7.990821341109457,219.27635088452203,11.02625902638274,19.832129815634694,0.023027857510697587,0.019613281519265946,0.23713680535706436,0.28180045167900136,0.1153360723556265,0.0977690765919758,1.8212220555084808,0.9919043748603485,9.399252951481875,0.0,0.20669073363404405,0.7042995835613318,-0.22831075369712683,0.620168145834059,0.25928317962091196,0.1153360723556265,0.0977690765919758,1.8212220555084808
31.3,-98.06660853508171,15.23569488759914,294.9864334018795,311.23332405036973,0,7.973049121891111,219.1438674006834,11.02625339164953,19.832881113395985,0.025594563778952348,0.021731647451102783,0.25043258709539906,0.233459357326675,0.02851895853616405,0.023537399242631565,0.14773090820371917,1.005278636410363,9.399252951481875,0.0,0.20669073363404405,0.7064817739139668,-0.22700448088188313,0.6180837326364245,0.2594705536995408,0.02851895853616405,0.023537399242631565,0.14773090820371917
31.5,-98.0643004201082,15.237644892861265,295.04600588091466,311.28915564960965,0,7.933645564074849,218.8444214991993,11.026238498529771,19.834866862697154,0.01154057486758124,0.009750026310628747,0.2978623951759129,0.3990138770780226,-0.07026994455685578,-0.059908105702370394,0.23714904040257,1.0645730136552263,9.399252951481875,0.0,0.20669073363404405,0.6806667487284083,-0.23672818249561994,0.6470176446676694,0.2490395797388839,-0.07026994455685578,-0.059908105702370394,0.23714904040257
31.6,-98.06199227170444,15.239588882122789,295.077889702197,311.31874403686953,0,7.913966283155863,218.6921055835275,11.02623052757445,19.8359296567399,0.023081484037561165,0.019439892615231436,0.3188382128234889,0.37346974817293843,0.1154090916997976,0.09689866304602551,0.20975817647575704,1.6940882874237189,9.399252951481875,0.0,0.20669073363404405,0.6948311490590721,-0.23074848303836085,0.6321724276343266,0.2536194661528705,0.1154090916997976,0.09689866304602551,0.20975817647575704
31.8,-98.05968024071989,15.241526962527558,295.2548298639261,311.48582566633365,0,7.87575248962879,218.38232166987942,11.026186292534017,19.841827662130868,0.01156015492277622,0.009690402023849777,0.8847008086453942,0.35747298367015856,-0.05760664557392493,-0.048747452956908466,2.829312979109537,2.2251502934464478,9.399252951481875,0.0,0.20669073363404405,0.6701631053253848,-0.2396118371442625,0.6588339911723354,0.24373213131821497,-0.05760664557392493,-0.048747452956908466,2.829312979109537
32.0,-98.0573658880494,15.243459971356328,295.23276746644075,311.46427895136645,0,7.835579387809247,218.06571433346755,11.02619180813339,19.84109224888136,0.011571763352407102,0.009665044143849534,-0.11031198742671261,0.3109704196805189,5.8042148154413756e-05,-0.00012678940000121532,-4.975063980360552,2.6312328238304574,9.399252951481875,0.0,0.20669073363404405,0.7083180926791075,0.2241706972672316,-0.6180926861764142,0.2568937705850015,5.8042148154413756e-05,-0.00012678940000121532,-4.975063980360552
32.1,-98.05505202463188,15.24538564602773,295.24977201221134,311.4797632019007,0,7.815789707880017,217.90486942364905,11.026187556996947,19.84165906707371,0.02313863417526785,0.0192567467140134,0.17004545770589388,0.2582506063289866,0.11566870822860584,0.09591702570163728,2.8035744513260252,2.688493214969035,9.399252951481875,0.0,0.20669073363404405,0.7205810097957075,-0.21853581242924577,0.6042196983578136,0.2606216858284836,0.11566870822860584,0.09591702570163728,2.8035744513260252
32.2,-98.05273580144926,15.247305134099165,295.24392750582984,311.47358803126286,0,7.795785208116568,217.74233985920674,11.026189018123542,19.841464250194328,0.02316223182617672,0.019194880714348,-0.058445063814928366,0.13832213815415606,0.00023597650908868336,-0.0006186599966539942,-2.28490521520819,2.4798789755637456,9.399252951481875,0.0,0.20669073363404405,0.8031162684785901,0.1766065461331239,-0.4898856507754974,0.2895279543191319,0.00023597650908868336,-0.0006186599966539942,-2.28490521520819
32.41,-98.05041664952542,15.249219193267804,295.25544075400126,311.4838650492019,0,7.754066994823455,217.39557644805382,11.0261861398115,19.841848025133373,0.01104358058972583,0.009114567469710132,0.05482499129243642,0.25145916048431455,-0.05770786303072024,-0.048001491641134125,0.5393812147969913,2.2685980960306686,9.399252951481875,0.0,0.20669073363404405,0.7447896205036215,-0.20672750695943742,0.5752504795007615,0.2676547120649125,-0.05770786303072024,-0.048001491641134125,0.5393812147969913
32.6,-98.0480974199249,15.25112612137145,295.20133846553375,311.43194519425856,0,7.715751672871702,217.07552064172225,11.026199665383617,19.84004461551779,0.012206471581664621,0.010036463703406228,-0.2847488866710687,0.22296942741380893,0.006120478904940851,0.004852085440505643,-1.7872309366499812,3.051634159724065,9.399252951481875,0.0,0.20669073363404405,0.6838563810118555,0.2318216262898384,-0.6469564931230358,0.2450438322824013,0.006120478904940851,0.004852085440505643,-1.7872309366499812
32.7,-98.04577527375201,15.253027396389541,295.1337027513293,311.3671970415254,0,7.6952274989805325,216.90467764296184,11.026216574312167,19.837790091710975,0.02322146172886586,0.019012750180902045,-0.6763571420446982,0.24578919075931882,0.11014990147201081,0.0897628647749569,-3.91608255373624,2.770420692507634,9.399252951481875,0.0,0.20669073363404405,0.6805085731656267,0.23250327860935502,-0.6509819676003774,0.24304893569634206,0.11014990147201081,0.0897628647749569,-3.91608255373624
32.8,-98.04345336214948,15.254921446443998,295.13329482437376,311.36617203768924,0,7.675401213701284,216.732194442381,11.026216676293906,19.837776494145793,0.023219116025360517,0.018940500544567494,-0.004079269555177466,0.2676394175488241,-2.34570350534174e-05,-0.0007224963633455506,6.72277872489559,3.005951464675616,9.399252951481875,0.0,0.20669073363404405,0.9398875012451926,0.022679682440613715,-0.06368295328954479,0.33472615444237774,-2.34570350534174e-05,-0.0007224963633455506,6.72277872489559
33.0,-98.04112944629749,15.256811039800219,295.0974534997271,311.3315602508577,0,7.635483146710776,216.38233817188154,11.026225636625067,19.836581783324235,0.01161957925994256,0.009447966781106354,-0.17920662323319647,0.24073246790104874,-0.05799768382708896,-0.04746266881730503,-0.8756367683900826,2.694651408585975,9.399252951481875,0.0,0.20669073363404405,0.693501038037517,0.22663450752865186,-0.637963907068104,0.24636388435915565,-0.05799768382708896,-0.04746266881730503,-0.8756367683900826
33.2,-98.03880499741241,15.258692804867962,295.1305014945133,311.3622454695445,0,7.596380165263412,216.02601402597276,11.026217374626372,19.837683383150445,0.011622244425382013,0.009408825338716875,0.1652399739307929,0.16282705253365376,1.3325827197263417e-05,-0.0001957072119473907,1.7222329858199226,2.0511724367920987,9.399252951481875,0.0,0.20669073363404405,0.6959542806752445,-0.22510507089098486,0.6358179661077069,0.24639573909389462,1.3325827197263417e-05,-0.0001957072119473907,1.7222329858199226
33.3,-98.03647900674582,15.260570840202263,295.14526712790916,311.37560107756326,0,7.576863344193286,215.8454462506239,11.026213683218023,19.838175570930304,0.0232599066659147,0.018780353343005277,0.14765633395882943,0.2216250559757346,0.11637662240533347,0.09371528004288934,-0.17583639971964465,0.7757041569853713,9.399252951481875,0.0,0.20669073363404405,0.7298768010112012,-0.21089610735576014,0.5969116631556356,0.2578742981311167,0.11637662240533347,0.09371528004288934,-0.17583639971964465
33.5,-98.03415179558324,15.262439934504362,295.20268872113536,311.42938913856756,0,7.538222943864554,215.4795394208042,11.026199327819716,19.840089624037844,0.011636055812900116,0.009345471510497782,0.28710796613097095,0.3419454893704083,-0.058119254265072084,-0.047174409162536804,0.6972581608606977,3.0529207086080152,9.399252951481875,0.0,0.20669073363404405,0.6841154113783476,-0.22852359277236114,0.6494776465533068,0.24071115073594804,-0.058119254265072084,-0.047174409162536804,0.6972581608606977
33.61,-98.03182327524306,15.264305476622598,295.23822909744433,311.4624364461101,0,7.517079859648817,215.27559793865814,11.026190442725639,19.841274303248145,0.021168366728959123,0.016959473802138244,0.32309433008157035,0.4603030229464352,0.08665737196417324,0.06921820265127729,0.32714876318726893,4.24687084153511,9.399252951481875,0.0,0.20669073363404405,0.6945084628892053,-0.22428099514866784,0.6386465951674682,0.24389866065929203,0.08665737196417324,0.06921820265127729,0.32714876318726893
33.7,-98.02949356707548,15.26616111555335,295.1679631821102,311.39518906575756,0,7.498826588273335,215.10732521075317,11.026208009204472,19.83893210607034,0.025885646306435348,0.020618210341695774,-0.7807323926012898,0.5406637469122635,0.05241421752751162,0.040652628217304344,-12.264741363142427,5.5105339734869805,-174235538599730.06,0.0,-169332852504.59918,0.6814825224196598,0.22835169346001266,-0.6532079762481162,0.23823604995114164,0.05241421752751162,0.040652628217304344,-12.264741363142427
33.9,-98.02716286246121,15.268013870441886,295.31947450241734,311.5381660837006,0,7.4614737364549,214.72886979090566,11.026170131374395,19.84398248341391,0.0116535230713313,0.009263774442676207,0.7575566015356278,0.7259971050898104,-0.07116061617552176,-0.056772179495099044,7.691444970684752,6.693699982604495,-87237683163860.89,0.0,-246110461513.36627,0.6741341404704806,-0.2307232014008578,0.661016676790781,0.23530175943230316,-0.07116061617552176,-0.056772179495099044,7.691444970684752
34.1,-98.02483103281044,15.269856100583327,295.20902328764936,311.43282330992577,0,7.421697941132948,214.3442404412284,11.026197744178088,19.840300776254978,0.011659148253855112,0.009211150707208885,-0.5522560738398773,0.785239103221413,2.812591261906189e-05,-0.0002631186773366081,-6.549063376877432,8.45873547487977,-87237683163860.89,0.0,-246110461513.36627,0.6768803326217658,0.22887796404691202,-0.658913511322121,0.23511885819887166,2.812591261906189e-05,-0.0002631186773366081,-6.549063376877432
34.2,-98.02249933956178,15.271695035423491,295.08764336907757,311.31712499498843,0,7.401227093044527,214.14963186814148,11.02622808915773,19.836254778969252,0.023316932486636355,0.018389348401637046,-1.2137991857178858,1.1382156882480448,0.11657784232781078,0.09178197694428031,-6.615431118779991,12.338635867348152,-87237683163860.89,0.0,-246110461513.36627,0.6761752593888573,0.22888661741177008,-0.6598347853330311,0.23455487849269374,0.11657784232781078,0.09178197694428031,-6.615431118779991
34.4,-98.02016658418096,15.273527684559825,295.2116960799496,311.4340687971085,0,7.364120335968361,213.75587017127594,11.026197075980011,19.840389869331652,0.011663776904100835,0.00916324568167168,0.6202635543601919,1.0640688746260951,-0.05826577791267884,-0.04613051359982782,9.170313700390585,16.13147356323973,-87237683163860.89,0.0,-246110461513.36627,0.6762140730223272,-0.228328962521742,0.6602367273734433,0.23385439090918386,-0.05826577791267884,-0.04613051359982782,9.170313700390585
34.5,-98.01783256815983,15.275349317742265,294.95708165547705,311.1920818672201,0,7.342487791137911,213.5567345479524,11.02626072958613,19.831902721849236,0.02334016021123342,0.018216331824394156,-2.5461442447254607,1.1982164715415282,0.11676383307132418,0.09053086142722348,-31.66407799085608,16.515522576958137,-87237683163860.89,0.0,-246110461513.36627,0.6725168715811215,0.2287010713138537,-0.6647420929517907,0.23137594359982605,0.11676383307132418,0.09053086142722348,-31.66407799085608
34.61,-98.01549703301514,15.277164264874148,294.9995453328247,311.23168404450445,0,7.321987578074132,213.33596313235807,11.026250113666794,19.833318177760823,0.021232137679047382,0.01649951938075982,0.3860334304332292,1.0004508664976806,-0.019163841201691335,-0.015607385851221314,26.656160683260957,18.085218646976294,-87237683163860.89,0.0,-246110461513.36627,0.6917308072995948,-0.22122930375588037,0.6452240039392775,0.23717518869583826,-0.019163841201691335,-0.015607385851221314,26.656160683260957
34.8,-98.01316445028745,15.278975166013097,294.76715725109733,311.0107787225,0,7.283701196069506,212.95041498136132,11.026308210687226,19.82557190836991,0.012276751198364431,0.00953105862604804,-1.2230951669862193,0.9705497614472336,-0.04713361305622662,-0.0366761092353256,-8.469097881155093,16.94535264739458,-2329185391709.0107,0.0,60465037455.91221,0.6731718274110123,0.22772353508078738,-0.6646720043821849,0.23063566276921746,-0.04713361305622662,-0.0366761092353256,-8.469097881155093
34.9,-98.01082771153996,15.280775761371872,294.78949675132793,311.03130365201457,0,7.265092411759639,212.74536750193124,11.026302625812168,19.8263165583776,0.0233673874748771,0.018005953587749444,0.2233950023060029,0.4871371942236339,0.1109063627651251,0.08474894961701283,14.464901692922018,10.95475895939919,-4658370783577.342,0.0,120930074911.93765,0.7118168052440185,-0.21252602228187295,0.6239987510321386,0.24243573238195523,0.1109063627651251,0.08474894961701283,14.464901692922018
35.1,-98.00849311835745,15.282573221319284,294.69535577646496,310.94143256216813,0,7.226693358820713,212.33091568811068,11.026326161055884,19.823178525882167,0.011672965912552347,0.008987299737057568,-0.4707048743148267,0.4323248238803032,-0.05847210781162293,-0.04509326925345874,-3.470499383104099,6.099292789097535,-4658370783577.342,0.0,120930074911.93765,0.6797844137973447,0.224246594893309,-0.6588416569980557,0.23137477485891353,-0.05847210781162293,-0.04509326925345874,-3.470499383104099
35.3,-98.00615851234502,15.284362716381043,294.6696729713604,310.91644379003384,0,7.189266982055608,211.91071624109645,11.02633258175716,19.822322432378677,0.011673030062127302,0.008947475308796107,-0.12841402552283218,0.2190715525566878,3.207478747793076e-07,-0.00019912214130731335,1.7114542439600093,4.931785815808671,-4658370783577.342,0.0,120930074911.93765,0.7067120669929936,0.21380740228349468,-0.6303900092186814,0.23969331524376136,3.207478747793076e-07,-0.00019912214130731335,1.7114542439600093
35.4,-98.00382000512705,15.286141437240644,294.6805746827561,310.9261261955902,0,7.170903910944101,211.69848445965792,11.02632985632931,19.822685822758537,0.023385072179706534,0.01778720859601154,0.10901711395717784,0.18925069611185336,0.11712042117579065,0.08839733287215308,2.3743113948000665,2.1193702774240544,-4658370783577.342,0.0,120930074911.93765,0.7522076254104285,-0.19427491412342462,0.5763206049511754,0.25356558584605243,0.11712042117579065,0.08839733287215308,2.3743113948000665
35.5,-98.00148115834604,15.287913044740229,294.66515865927164,310.9108655582608,0,7.152355252020797,211.48484386190574,11.026333710335182,19.822171955309056,0.023388467810150027,0.01771607499584579,-0.15416023484476463,0.10255738992980061,3.395630443492289e-05,-0.0007113360016575042,-2.631773488019387,1.465425671857578,-4658370783577.342,0.0,120930074911.93765,0.7302640740582131,0.2030623895311703,-0.6043845161099851,0.24535566996564614,3.395630443492289e-05,-0.0007113360016575042,-2.631773488019387
35.7,-97.99914544366142,15.289679619881436,294.6501965513905,310.89603590000877,0,7.115656751971413,211.05337426006213,11.026337450862153,19.821673218379683,0.011678573423097138,0.008832875706037288,-0.07481053940580189,0.17299479568363216,-0.05854947193526361,-0.04441599644904188,0.39674847719480805,1.934714638775165,-4658370783577.342,0.0,120930074911.93765,0.7319249857284897,0.2022044338935363,-0.6025533596091639,0.24561887346833586,-0.05854947193526361,-0.04441599644904188,0.39674847719480805
35.9,-97.99680896274849,15.29143812382629,294.6432969114474,310.8888467951586,0,7.079371203609039,210.61638414013626,11.026339175772138,19.82144323038158,0.011682404564652665,0.008792519724272384,-0.034498199715358904,0.2059746616806966,1.9155707777635388e-05,-0.00020177990882452605,0.20156169845221922,1.9142420185459428,-4658370783577.342,0.0,120930074911.93765,0.7907291603229288,0.17504969170765072,-0.5236818171156716,0.2643148782616687,1.9155707777635388e-05,-0.00020177990882452605,0.20156169845221922
