time,position_x,position_y,position_z,ground_station_distance,comm_range_status,wind_speed,wind_angle,battery_voltage,battery_current,velocity_x,velocity_y,velocity_z,velocity_total,acceleration_x,acceleration_y,acceleration_z,acceleration_total,angular_x,angular_y,angular_z,orientation_w,orientation_x,orientation_y,orientation_z,linear_acceleration_x,linear_acceleration_y,linear_acceleration_z
0.0,-97.5069894132176,30.149388956182545,269.3324017,288.0217721707001,0,7.693324017,180.0,11.032666899575,18.977746723333333,-0.004518958821435604,-0.010856496263755844,0.012359152323995204,0.030657978472394327,-0.04619126214393535,-0.10898611990981527,0.2606566705736669,0.24250235715023366,2272453281944685.0,0.0,-11311724920923.6,0.5099355651732239,0.3279027804267746,0.21868702757079722,-0.764605434150258,-0.04619126214393535,-0.10898611990981527,0.2606566705736669
0.2,-97.50789320498188,30.147217656929794,269.3348735304648,288.0241623013595,0,7.733346068691314,180.59998222238025,11.032666281617383,18.97782911768216,-0.004518958821435604,-0.010856496263755844,0.012359152323995204,0.030657978472394327,-0.04619126214393535,-0.10898611990981527,0.2606566705736669,0.24250235715023366,2272453281944685.0,0.0,-11311724920923.6,0.5099355651732239,0.3279027804267746,0.21868702757079722,-0.764605434150258,-0.04619126214393535,-0.10898611990981527,0.2606566705736669
0.3,-97.50880701348547,30.14504214610432,269.3387160124029,288.0278371171672,0,7.753378160529021,180.89994000119998,11.032665320996898,18.97795720041343,-0.009138085035829137,-0.02175510825473737,0.03842481938136189,0.030657978472394327,-0.04619126214393535,-0.10898611990981527,0.2606566705736669,0.24250235715023366,2272453281944685.0,0.0,-11311724920923.6,0.48305698980767037,0.40660548091730797,0.2702272723855012,-0.7268460282240311,-0.04619126214393535,-0.10898611990981527,0.2606566705736669
0.5,-97.50973108857752,30.142862511680583,269.3430996973098,288.0320210877946,0,7.793389335514455,181.4997222376539,11.032664225075672,18.97810332324366,-0.0046203754602913705,-0.010898172118682936,0.0219184245344195,0.030657978472394327,0.022588547877688832,0.05428468068027216,-0.08253197423471195,0.24250235715023366,2272453281944685.0,0.0,-11311724920923.6,0.4741779530953528,0.4271017766689375,0.2828268334068984,-0.7160644687942315,0.022588547877688832,0.05428468068027216,-0.08253197423471195
0.6,-97.5106651598835,30.140678791723957,269.3474454367244,288.03617255691694,0,7.813402467326133,181.79952003839853,11.03266313864082,18.978248181224146,-0.009340713059771135,-0.021837199566263624,0.043457394145889346,0.03799989777486182,-0.04720337599479765,-0.1093902744758069,0.2153896961146985,0.24250235715023366,2272453281944685.0,0.0,-11311724920923.6,0.47373491756783476,0.4257592105800176,0.28095782753210796,-0.7178906752644969,-0.04720337599479765,-0.1093902744758069,0.2153896961146985
0.81,-97.51160945680554,30.138491084389692,269.35001968225174,288.0386705401374,0,7.855323107926513,182.42881919217493,11.032662495079437,18.97833398940839,-0.0044966520097286106,-0.010417653972690942,0.012258312034960212,0.03141914732678007,0.023066957381154867,0.05437878854082227,-0.14856705767109105,0.2363059267364504,2272453281944685.0,0.0,-11311724920923.6,0.5034368786723008,0.33459054754012996,0.22000713954839463,-0.7656352481679644,0.023066957381154867,0.05437878854082227,-0.14856705767109105
0.9,-97.51256371852294,30.136299357921853,269.35422728558433,288.04269888084906,0,7.873299371251866,182.698380291575,11.032661443178604,18.978474242852812,-0.010602907971070235,-0.024352516309317854,0.04675114813987119,0.03178047500773259,-0.0678472884593514,-0.15483180374029906,0.383253734499011,0.2527114462498507,2272453281944685.0,0.0,-11311724920923.6,0.4737047368641971,0.4207225986995896,0.2756910768897805,-0.7229043832618799,-0.0678472884593514,-0.15483180374029906,0.383253734499011
1.1,-97.51352815399257,30.13410373065224,269.3537903985242,288.04238712859836,0,7.913094505659592,183.29704301743396,11.032661552400368,18.97845967995081,-0.004822177348131616,-0.010978136348072095,-0.0021844353005917574,0.02700787746322656,0.028903653114693083,0.06687189980622878,-0.24467791720231466,0.2197719993954393,2348684968454466.0,0.0,-5635929745093.7295,0.5445155145679508,-0.07534086550075558,-0.04919506115049425,-0.8339103395082688,0.028903653114693083,0.06687189980622878,-0.24467791720231466
1.2,-97.51450262194945,30.131904220999363,269.35495257300516,288.0435736988338,0,7.93297394030789,183.59616122861277,11.032661261856749,18.97849841910017,-0.009744679568797222,-0.021995096528755226,0.01162174480953128,0.0288510607249989,-0.04922502220665612,-0.11016960180683145,0.13806180110123056,0.22394125830707196,2348684968454466.0,0.0,-5635929745093.7295,0.5316566480931979,0.18701324482439793,0.12169113511276464,-0.8170425462811114,-0.04922502220665612,-0.11016960180683145,0.13806180110123056
1.4,-97.51548701090707,30.129700847467316,269.359482061114,288.0479120847153,0,7.972681049899613,184.19390487759242,11.032660129484722,18.978649402037135,-0.00492194478809438,-0.011016867660238462,0.022647440544290024,0.021166341240591365,0.024113673903514217,0.05489114434258383,0.05512847867379373,0.1522328604845732,2348684968454466.0,0.0,-5635929745093.7295,0.4665043064862781,0.4318237173290033,0.28003654958507246,-0.7193618978500356,0.024113673903514217,0.05489114434258383,0.05512847867379373
1.5,-97.51648153915798,30.127493718644757,269.3604082151129,288.0488839821397,0,7.992480347098327,184.49250374910727,11.032659897946221,18.978680273837096,-0.009945282509136169,-0.022071288225582443,0.009261539988756331,0.027696318338843874,-0.050233377210417846,-0.11054420565343971,-0.1338590055553368,0.16274938460139193,2348684968454466.0,0.0,-5635929745093.7295,0.5337292330972297,0.15259273074657473,0.09861046306755754,-0.8259083126076091,-0.050233377210417846,-0.11054420565343971,-0.1338590055553368
1.7,-97.51748602477423,30.125282843203802,269.3622850874611,288.05074791521326,0,8.031987549008603,185.08908923171782,11.032659428728135,18.978742836248703,-0.0050224280812472,-0.011054377204775536,0.00938436174095614,0.025402744739357958,0.02461427213944485,0.05508455510403455,0.0006141087609990403,0.15707185156505296,2348684968454466.0,0.0,-5635929745093.7295,0.5124178393250542,0.27163400540782473,0.17494171424280713,-0.7956370539795974,0.02461427213944485,0.05508455510403455,0.0006141087609990403
1.8,-97.5185003456078,30.12306825989898,269.3660495308367,288.05437991965334,0,8.051719642160014,185.38704932800138,11.03265848761729,18.978868317694555,-0.010143208335762202,-0.0221458330482349,0.03764443375587231,0.029312471091749726,-0.05120780254514998,-0.11091455843459354,0.28260072014916143,0.20352707512387416,2348684968454466.0,0.0,-5635929745093.7295,0.4745033018150961,0.4021648141258046,0.2581422500565533,-0.7392378897090358,-0.05120780254514998,-0.11091455843459354,0.28260072014916143
2.0,-97.5195246892912,30.12085005756613,269.3678748981585,288.05620168808315,0,8.091017410571707,185.98223801800413,11.03265803127546,18.97892916327195,-0.005121718416987165,-0.011091011664241536,0.009126836609141266,0.02715994900297734,0.02510744959387519,0.05527410691996683,-0.14258798573365525,0.19896216500662048,2348684968454466.0,0.0,-5635929745093.7295,0.5113719454198932,0.2656426628420058,0.16992796589635656,-0.7994105300294767,0.02510744959387519,0.05527410691996683,-0.14258798573365525
2.1,-97.52055885323789,30.11862825512136,269.3716740426079,288.0598721507996,0,8.110636540118279,186.27944015899064,11.032657081489347,18.979055801420262,-0.01034163946684429,-0.022218024447688813,0.03799144449374122,0.033187998671555655,-0.05219921049857121,-0.11127012783447267,0.2886460788459993,0.25059941742445363,2348684968454466.0,0.0,-5635929745093.7295,0.47205254224829724,0.4034760451776163,0.25723977061417325,-0.7404060904254618,-0.05219921049857121,-0.11127012783447267,0.2886460788459993
2.3,-97.52160300464273,30.11640291155993,269.37344801765045,288.0616518626601,0,8.149689527246881,186.87299398884537,11.032656637995586,18.979114933921682,-0.0052207570242046655,-0.011126717807155033,0.008869875212838009,0.027014581311498816,0.025604412213198157,0.05545653320266897,-0.14560784640451624,0.2207368309786319,2348684968454466.0,0.0,-5635929745093.7295,0.5103110598837756,0.2595381596367721,0.1649100698191794,-0.8031358756305738,0.025604412213198157,0.05545653320266897,-0.14560784640451624
2.4,-97.52265693048263,30.114174065955194,269.3772704770579,288.06535012758,0,8.169177957624848,187.16931929764107,11.032655682380735,18.979242349235264,-0.010539258398978282,-0.022288456047370155,0.038224594074449635,0.02977201202317888,-0.05318501374773612,-0.11161738240215112,0.293547188616116,0.22499932691551305,2348684968454466.0,0.0,-5635929745093.7295,0.46980005628339355,0.4042722893392055,0.25602748581761287,-0.7418232604161654,-0.05318501374773612,-0.11161738240215112,0.293547188616116
2.61,-97.52372075751687,30.11194177745751,269.37884927492956,288.06695330197863,0,8.209882119087215,187.79054958741378,11.032655287681267,18.97929497583099,-0.00506584302020959,-0.010629945227065498,0.007518085103204917,0.026210702961528266,0.026063882756041396,0.055516718191926946,-0.14622147129164154,0.18374228411002064,2348684968454466.0,0.0,-5635929745093.7295,0.512358988119439,0.2370352250489973,0.149613734905773,-0.811737826953223,0.026063882756041396,0.055516718191926946,-0.14622147129164154
2.7,-97.52479440228782,30.109706105293156,269.37967286571427,288.06785325369935,0,8.227259602034804,188.0563308041621,11.03265508178357,18.97932242885714,-0.011929386343941396,-0.024840801826147417,0.009151008718946358,0.02962364445502399,-0.0762615924859087,-0.15789840665646523,0.018143595730460396,0.17844362168616926,0.34456838973955684,0.0,0.11765511370171566,0.5256653777902598,0.13511172352962245,0.08499898882595934,-0.8355811777775053,-0.0762615924859087,-0.15789840665646523,0.018143595730460396
2.9,-97.52587779112129,30.107467078763257,269.38455660423193,288.07255292666497,0,8.26575001625199,188.64590342175129,11.032653860848942,18.979485220141065,-0.00541694416732242,-0.011195132649497468,0.024418692588312783,0.02390697850300518,0.032562210883094925,0.06822834588324983,0.07633841934683222,0.129508007687491,7.134664695402624,0.0,-0.11998731596760877,0.45293773089416345,0.4427305759314708,0.27761260042772656,-0.7223353052091458,0.032562210883094925,0.06822834588324983,0.07633841934683222
3.0,-97.5269710001271,30.105224767242678,269.3865960456952,288.07459582516543,0,8.28490637377963,188.94011988577776,11.032653350988577,18.979553201523174,-0.010932090058162192,-0.022423115205789636,0.020394414632960416,0.03167782273178865,-0.05515145890839768,-0.11227982556292158,-0.04024277955352363,0.17901830889590814,26.094171141824926,0.0,-0.11587020643117966,0.4991730173895458,0.2849346268108362,0.17807827806368162,-0.7987031263468672,-0.05515145890839768,-0.11227982556292158,-0.04024277955352363
3.21,-97.52807394519968,30.102979220178952,269.38911404573116,288.0770892169921,0,8.324922417642766,189.55666554280648,11.032652721488567,18.979637134857704,-0.005252119393211226,-0.01069308125583881,0.011990476361591262,0.030980503049193482,0.027047479356909366,0.05585730452357537,-0.040018753673186455,0.17107783311386573,13.078954076185132,0.0,0.1192169279005327,0.4881675111995531,0.326080264963751,0.20312946924384784,-0.7836469616703154,0.027047479356909366,0.05585730452357537,-0.040018753673186455
3.3,-97.52918655201846,30.10073045709117,269.39315236040255,288.0810072570282,0,8.342017580393762,189.82033303863912,11.0326517119099,18.979771745346753,-0.012362297986435875,-0.024986256530902414,0.04487016301545238,0.03559381247851322,-0.07900198436916289,-0.15881305861181808,0.36532985170956855,0.19943437766122246,7183263218726.928,0.0,-2590698418202.9995,0.46104487062907057,0.41282637038155406,0.2563396870062772,-0.7424971246070515,-0.07900198436916289,-0.15881305861181808,0.36532985170956855
3.5,-97.53030890604853,30.09847853756892,269.39759994622955,288.0853110145925,0,8.379771614373198,190.40498125354344,11.032650600013442,18.97991999820765,-0.005611770150366619,-0.011259597611257267,0.02223792913497389,0.034437950441768526,0.03375263918034625,0.06863329459822567,-0.11316116940239235,0.19719734266499686,7183263218726.928,0.0,-2590698418202.9995,0.4546112807379894,0.42837910724636635,0.2651324046585493,-0.7345234726681963,0.03375263918034625,0.06863329459822567,-0.11316116940239235
3.6,-97.53144087254117,30.096223531271157,269.4019709602113,288.08954612544477,0,8.398568176152292,190.69661818922106,11.032649507259947,18.980065698673712,-0.011319664926361373,-0.022550062977622055,0.04371013981767642,0.04142282719647973,-0.05707894775994749,-0.11290465366364778,0.21472210682702514,0.2332063107213888,7183263218726.928,0.0,-2590698418202.9995,0.45470381103697116,0.42556061518688876,0.2625459007479524,-0.7370293461122546,-0.05707894775994749,-0.11290465366364778,0.21472210682702514
3.8,-97.53258254653427,30.093965477925142,269.4066148598472,288.0940394153012,0,8.435907087424438,191.2784529096354,11.032648346285038,18.98022049532824,-0.005708369965518053,-0.011290266730075176,0.023219498179400975,0.0362782343277695,0.02805647480421664,0.056298981237734476,-0.10245320819137738,0.17559376172345936,7183263218726.928,0.0,-2590698418202.9995,0.4503777582099642,0.4349944593236531,0.26749942498078255,-0.7323822450759169,0.02805647480421664,0.056298981237734476,-0.10245320819137738
3.9,-97.5337337928531,30.09170442732532,269.4111340031583,288.0984189956348,0,8.454488170277905,191.56862483514698,11.03264721649921,18.98037113343861,-0.01151246318826792,-0.02261050599823731,0.04519143311085823,0.04072456108578485,-0.05804093222749861,-0.11320239268162123,0.21971934931457235,0.19623317624716646,7183263218726.928,0.0,-2590698418202.9995,0.45102576490572743,0.43070811280657506,0.26402321505874854,-0.7357703601422415,-0.05804093222749861,-0.11320239268162123,0.21971934931457235
4.11,-97.53489469611061,30.089440429332228,269.4162250487086,288.10333637121965,0,8.493214749186563,192.17629692654444,11.032645943737823,18.980540834956955,-0.005528110750065339,-0.010780942824238419,0.024243074049189996,0.03774912256205325,0.028496916372393183,0.056331253209518414,-0.09975409076984854,0.16280730935122315,7183263218726.928,0.0,-2590698418202.9995,0.4435047764562471,0.44868270134139876,0.2741606686841529,-0.7258259257729347,0.028496916372393183,0.056331253209518414,-0.09975409076984854
4.2,-97.53606515070821,30.087173533871407,269.41968685562665,288.1067331419459,0,8.509717774675407,192.43600418538512,11.032645078286093,18.98065622852089,-0.013005051084431033,-0.025187727342452327,0.03846452131155179,0.04161365550294395,-0.08307711482628563,-0.16007538353571035,0.1580160806929091,0.1661371508905773,7183263218726.928,0.0,-2590698418202.9995,0.4643019905491736,0.38514271445425013,0.23459216980460093,-0.7622698111175966,-0.08307711482628563,-0.16007538353571035,0.1580160806929091
4.4,-97.53724512083622,30.084903810932293,269.4263298836264,288.11310775047326,0,8.546142228968263,193.01151495687571,11.032643417529092,18.980877662787545,-0.005899850640034282,-0.011348614695574345,0.03321513999878786,0.03787200251203047,0.035526002221983724,0.06919556323438986,-0.026246906563819627,0.13012708526651667,7183263218726.928,0.0,-2590698418202.9995,0.4278828012896935,0.4837730775063551,0.2937412342508228,-0.7046956826469978,0.035526002221983724,0.06919556323438986,-0.026246906563819627
4.5,-97.53843462047443,30.0826312405671,269.4301199930287,288.1168174370014,0,8.564232268152749,193.2984092997603,11.032642470001742,18.981003999767623,-0.011894996382153564,-0.022725703651929132,0.03790109402302746,0.04322164226128319,-0.059951457421193025,-0.11377088956354828,0.04685954024239612,0.1488404999030995,7183263218726.928,0.0,-2590698418202.9995,0.4573933068573687,0.4010414008632771,0.2427440581853258,-0.7556669106500696,-0.059951457421193025,-0.11377088956354828,0.04685954024239612
4.7,-97.53963361339278,30.08035594288975,269.43622404478214,288.12269394581864,0,8.600134811205958,193.87041214631236,11.032640943988804,18.981207468159404,-0.005994964591735647,-0.01137648838675175,0.030520258767126024,0.0409304779089424,0.02950015895208956,0.056746076325886866,-0.036904176279507137,0.11940382681945765,7183263218726.928,0.0,-2590698418202.9995,0.43042829916836356,0.47352330092196254,0.28571809965308864,-0.7133528792187116,0.02950015895208956,0.056746076325886866,-0.036904176279507137
4.8,-97.54084205315175,30.07807795807474,269.4409515004844,288.1272860865078,0,8.61796786608781,194.1554952277253,11.032639762124878,18.981365050016148,-0.012084397589688977,-0.02277984815009412,0.04727455702266087,0.04459788383595268,-0.060894329979533514,-0.1140335976334241,0.16754298255534902,0.14023693573565993,7183263218726.928,0.0,-2590698418202.9995,0.4432334527636273,0.43742445670593916,0.26311520024153234,-0.7368679273985304,-0.060894329979533514,-0.1140335976334241,0.16754298255534902
5.0,-97.54205995310318,30.075797316356038,269.44774102240336,288.13380951597026,0,8.65332848743244,194.72376135582684,11.032638064744399,18.981591367413447,-0.006089499757138123,-0.011403208593510062,0.033947609594804334,0.04357859368773205,0.02997448916275424,0.05688319778292024,-0.06663473713928261,0.1284754898507871,7183263218726.928,0.0,-2590698418202.9995,0.42343205632477393,0.48671058502310227,0.2918504375406148,-0.7061454681653028,0.02997448916275424,0.05688319778292024,-0.06663473713928261
5.1,-97.54328723639065,30.073514088025995,269.45247017349755,288.1384091319366,0,8.67087919550079,195.00691914633666,11.032636882456625,18.981749005783254,-0.012272832874771255,-0.02283228330043138,0.04729151094181833,0.047775131066198184,-0.06183333117633154,-0.11429074706921358,0.1334390134701404,0.14529177526895565,7183263218726.928,0.0,-2590698418202.9995,0.44148293341919714,0.437387177314722,0.2614652376659385,-0.7385263746898516,-0.06183333117633154,-0.11429074706921358,0.1334390134701404
5.3,-97.5445239459502,30.071228293434206,269.4601775174376,288.1457967603326,0,8.70566845758407,195.57122125711322,11.03263495562064,18.982005917247918,-0.006183547797746764,-0.011428972958942286,0.03853671970034608,0.04569530806348232,0.030446425385122426,0.05701655170744542,-0.04377395620736121,0.11705658141617437,7183263218726.928,0.0,-2590698418202.9995,0.4158175965366158,0.501070999350024,0.29860804525213225,-0.6977512560587628,0.030446425385122426,0.05701655170744542,-0.04377395620736121
5.4,-97.5457699845109,30.068940032986436,269.46491891862695,288.15041371547716,0,8.722921172492494,195.85234049737906,11.032633770270342,18.982163963954232,-0.01246038560694267,-0.02288260447770073,0.047414011893351676,0.05654104890058749,-0.06276837809195873,-0.11453631518758384,0.08877292193005552,0.20333672224415705,7183263218726.928,0.0,-2590698418202.9995,0.4396176070018235,0.4376970362663758,0.2600412603565074,-0.739956895345817,-0.06276837809195873,-0.11453631518758384,0.08877292193005552
5.61,-97.54702537459535,30.066649297143467,269.4736617422226,288.1587755598485,0,8.758802992017447,196.44038273173368,11.032631584564443,18.98245539140742,-0.005978048021201436,-0.010908265918900607,0.04163249331256902,0.053074098807404026,0.03086827421781541,0.057020659803810124,-0.027531040860869802,0.22009315341949476,242202711259.52597,0.0,1221823738458.899,0.40868767177525417,0.5139880806582112,0.30443183716129124,-0.6900086205278968,0.03086827421781541,0.057020659803810124,-0.027531040860869802
5.7,-97.54829004852046,30.06435619642002,269.4813794541554,288.16618170321436,0,8.774077892009492,196.69142112358423,11.03262965513646,18.982712648471846,-0.014051932501186276,-0.025478896927171847,0.08575235480887197,0.06410975296144708,-0.08970982755538726,-0.1618959000919029,0.4902206832922558,0.32344869856462666,242202711259.52597,0.0,1221823738458.899,0.413281934191103,0.5016071031359671,0.29619314779841754,-0.6998985470424044,-0.08970982755538726,-0.1618959000919029,0.4902206832922558
5.9,-97.54956401839796,30.06206074138363,269.48821142115156,288.1727624727386,0,8.807604160037084,197.24711973558604,11.032627947144713,18.982940380705053,-0.006369849387510834,-0.01147727518196361,0.034159834980869136,0.06650378842157881,0.038410415568377175,0.07000810872604113,-0.25796259914001396,0.32226595808046,242202711259.52597,0.0,1221823738458.899,0.4181390979432293,0.48798371535648133,0.28727158498664435,-0.7102862977542002,0.038410415568377175,0.07000810872604113,-0.25796259914001396
6.0,-97.55084720613497,30.05976298265351,269.4974277107527,288.1815758925618,0,8.824259223897597,197.52382540388928,11.032625643072311,18.983247590358424,-0.012831877370160828,-0.022977587301191787,0.09216289601113237,0.06866870710838864,-0.06462027982650016,-0.11500312119228219,0.5800306103026344,0.3518378853914412,242202711259.52597,0.0,1221823738458.899,0.4040818849816238,0.519401937755664,0.30484551039460234,-0.6884828771128686,-0.06462027982650016,-0.11500312119228219,0.5800306103026344
6.2,-97.55213960343475,30.05746299089948,269.5103759913361,288.193882290462,0,8.85717408098797,198.07488797572614,11.032622406002165,18.983679199711204,-0.006461986498891286,-0.011499958770144748,0.06474140291714997,0.0653026821862797,0.03184945435634768,0.05738814265523515,-0.13710746546991187,0.2754169052831711,242202711259.52597,0.0,1221823738458.899,0.3911436571924318,0.5459901488536038,0.31948415048557754,-0.6684543921476304,0.03184945435634768,0.05738814265523515,-0.13710746546991187
6.3,-97.55344121179724,30.055160806840803,269.51511563213575,288.1985151550787,0,8.873440672205897,198.34922038768065,11.032621221091965,18.98383718773786,-0.013016083624819477,-0.02302184058677889,0.04739640799641637,0.06881867809271207,-0.06554097125928214,-0.11521881816634184,-0.17344994920733664,0.27861548489332694,242202711259.52597,0.0,1221823738458.899,0.4345360107023432,0.43734560828402697,0.2551396784687962,-0.7448563746041292,-0.06554097125928214,-0.11521881816634184,-0.17344994920733664
6.5,-97.55475197251961,30.0528564612451,269.5296202032623,288.212282841684,0,8.905669013504703,198.89542650167127,11.032617594949183,18.984320673442078,-0.00655380361187951,-0.01152172797851846,0.07252285563282605,0.06549838346302934,0.032311400064699805,0.057500563041302105,0.1256322381820483,0.19327815972567483,242202711259.52597,0.0,1221823738458.899,0.3861572686417684,0.5535652504212436,0.32197485903914624,-0.6639128463495167,0.032311400064699805,0.057500563041302105,0.1256322381820483
6.6,-97.55607187669709,30.0505500349272,269.5343411757234,288.2169040678291,0,8.921577115704102,199.16727592796997,11.03261641470607,18.98447803919078,-0.013199041774782974,-0.023064263179009087,0.0472097246108662,0.063127958436319,-0.06645238162903487,-0.11542535200490668,-0.25313131021959945,0.23027453991153662,242202711259.52597,0.0,1221823738458.899,0.4330682350112049,0.4366158340248031,0.2531924674888525,-0.7468012397619674,-0.06645238162903487,-0.11542535200490668,-0.25313131021959945
6.8,-97.55740084522347,30.04824157874805,269.5499648214441,288.2317241680592,0,8.953085696251378,199.70840710895135,11.032612508794639,18.98499882738147,-0.006644842631899899,-0.011542280895735491,0.0781182286036141,0.06974590378025801,0.032770995714415344,0.057609911416367926,0.15454251996373938,0.2279624891882,242202711259.52597,0.0,1221823738458.899,0.3825208510091615,0.5583476297536615,0.32282453556912394,-0.6615965856368021,0.032770995714415344,0.057609911416367926,0.15454251996373938
6.9,-97.55873892879171,30.04593113361358,269.5546838132865,288.236349346752,0,8.9686212025768,199.9776648134484,11.032611329046677,18.98515612710955,-0.013380835682426024,-0.023104451344728594,0.04718991842366879,0.08900056344780329,-0.06735993050526089,-0.11562170448993042,-0.30928310179945145,0.36485216258942466,242202711259.52597,0.0,1221823738458.899,0.4314158939505032,0.4364461107625926,0.2515910067445887,-0.7483963416347913,-0.06735993050526089,-0.11562170448993042,-0.30928310179945145
7.1,-97.56008605789476,30.043618740473573,269.57195072507045,288.25271210583014,0,8.999387049293778,200.51350461616315,11.032607012318731,18.985731690835685,-0.006735645515263424,-0.011561965700028806,0.08633455891981642,0.08561713571617321,0.03322595083581312,0.057712428223499146,0.19572320248073885,0.4414362248156204,242202711259.52597,0.0,1221823738458.899,0.37837952563800475,0.5641632829086404,0.32425262788771897,-0.658338027234955,0.03322595083581312,0.057712428223499146,0.19572320248073885
7.2,-97.561442152826,30.041304470320554,269.5887375315929,288.2686288396568,0,9.014656719258877,200.78006289936673,11.032602815617102,18.986291251053096,-0.013560949312392195,-0.02314270153018315,0.16786806522475128,0.10682862219064351,-0.06825303797128734,-0.11580735830154282,0.8153350630493442,0.7061995075671161,242202711259.52597,0.0,1221823738458.899,0.3783009405273002,0.5630299117286441,0.3226521764086223,-0.6601373265872598,-0.06825303797128734,-0.11580735830154282,0.8153350630493442
7.4,-97.56280730368005,30.03898836418866,269.5956872086481,288.27534884624123,0,9.04453269534277,201.31039699503822,11.032601078197837,18.98652290695494,-0.006825754270209921,-0.011580530659465172,0.034748385275804566,0.1166419960756649,0.03367597521091134,0.05781085435358983,-0.665598399744733,0.7169620745246488,242202711259.52597,0.0,1221823738458.899,0.40921147704933475,0.4908609690591891,0.28046041297922814,-0.716200693141871,0.03367597521091134,0.05781085435358983,-0.665598399744733
7.5,-97.56418135035334,30.036670463152515,269.6140205330471,288.2927177766913,0,9.05941772537714,201.57414923718915,11.032596494866738,18.987134017768238,-0.01374046673291223,-0.02317901036146716,0.18333324399009207,0.11128979830763545,-0.06914712462702334,-0.1159847970200203,1.4858485871428804,0.7928446309356255,51312068897370.46,0.0,6771145400.598894,0.3746096504249749,0.56797174812157,0.323575478218144,-0.6575519850476501,-0.06914712462702334,-0.1159847970200203,1.4858485871428804
7.71,-97.56556433254481,30.034350838326098,269.63554188263794,288.3130711919794,0,9.09006102104583,202.1248939586155,11.03259111452934,18.987851396087933,-0.006585629483202823,-0.011045832506744499,0.1024826170992453,0.10036521996495354,0.0340706535700448,0.05777703740344126,-0.3850029851945085,0.691696949362842,2818471968269.445,0.0,-1140951520796.9504,0.37035391127937783,0.5752890859795925,0.3267844826229172,-0.6519910657897884,0.0340706535700448,0.05777703740344126,-0.3850029851945085
7.8,-97.56695623975659,30.03202953086163,269.6402773363248,288.31772909351804,0,9.10296161176407,202.35960620296817,11.03258993066592,18.98800924454416,-0.015465635686477247,-0.025792305160739718,0.052616152076249596,0.1027892424044768,-0.0986667355919382,-0.16384969615550268,-0.554071833588842,0.6900644862772299,-6.81575399373974,0.0,-0.15002229670930092,0.42625779015824083,0.43670266758796134,0.24733699535239448,-0.7526084554275358,-0.0986667355919382,-0.16384969615550268,-0.554071833588842
8.0,-97.56835698129468,30.02970657194843,269.6631922740874,288.33939173876,0,9.13134410453992,202.87829479190856,11.032584201931478,18.988773075802914,-0.007003707690458321,-0.011614794566003884,0.11457468881303602,0.0912781806657374,0.042309639980094585,0.0708875529736791,0.30979268368393187,0.4809637305426063,-6.81575399373974,0.0,-0.15002229670930092,0.3675831283141605,0.5783862272637834,0.32663625268098634,-0.6508922908783491,0.042309639980094585,0.0708875529736791,0.30979268368393187
8.11,-97.56976659626953,30.027382052811802,269.667894577001,288.34402437399075,0,9.146631566859252,203.16184574156526,11.03258302635575,18.988929819233366,-0.012814681589516591,-0.021131992151168896,0.04274820830532526,0.08050699939328998,-0.05282703544598455,-0.0865199780469551,-0.6529680046155557,0.557063517781572,-6.81575399373974,0.0,-0.15002229670930092,0.424988599750606,0.43545796098761314,0.2452022517064919,-0.7547429430293442,-0.05282703544598455,-0.0865199780469551,-0.6529680046155557
8.3,-97.57118496359689,30.02505600471189,269.6920132272551,288.36681869080644,0,9.172782874492476,203.64867307169013,11.032576996693185,18.989733774241838,-0.0074650911966350555,-0.012242358420596948,0.12694026449516405,0.09520510390307046,0.028155738909902632,0.04678754595037836,0.4431160852096748,0.5358008007234065,-6.81575399373974,0.0,-0.15002229670930092,0.3650985833558964,0.5809344915385799,0.32617978139460685,-0.650249868267342,0.028155738909902632,0.04678754595037836,0.4431160852096748
8.41,-97.57261215199833,30.02272847894255,269.69671540817285,288.3714569256839,0,9.187587574809584,203.92879124602558,11.032575821147956,18.98989051360576,-0.01297444001305731,-0.02115932517580446,0.04274709925249993,0.11921774226416812,-0.050084989240202576,-0.08106333413825054,-0.7653924112969506,0.6743920032204082,-6.81575399373974,0.0,-0.15002229670930092,0.4233547406858613,0.43535200563445675,0.24373036986764285,-0.7561976603594096,-0.050084989240202576,-0.08106333413825054,-0.7653924112969506
8.6,-97.57404800000202,30.020399516830235,269.72204610423046,288.395390713703,0,9.212905586832859,204.40959219755445,11.032569488473943,18.990734870141015,-0.007557094756287772,-0.012257695327976244,0.13331945293478084,0.11684964051120014,0.028512343456681855,0.04685068340962232,0.47669659832779554,0.741606417769183,-6.81575399373974,0.0,-0.15002229670930092,0.3627096840686573,0.5833211144011143,0.3256425226036393,-0.6497192547931723,0.028512343456681855,0.04685068340962232,0.47669659832779554
8.7,-97.57549257594343,30.018069179732848,269.74542970107586,288.41750653061143,0,9.226112171061768,204.6610771556343,11.03256364257473,18.991514323369195,-0.014445759414059064,-0.02330337097387067,0.23383596845406002,0.13223952300245756,-0.06888664657771316,-0.11045675645894464,1.0051651551927954,0.9335212189224492,550164427638.2906,0.0,-551746184277.3009,0.36339323483500624,0.5807468124098634,0.3232742234406359,-0.652818713894437,-0.06888664657771316,-0.11045675645894464,1.0051651551927954
8.9,-97.57694588796595,30.015737519038616,269.7524163855476,288.42428991587497,0,9.251667658909124,205.16074781199663,11.032561895903612,18.991747212851585,-0.007266560112597592,-0.011658303471158087,0.034933422358562706,0.1530669180212752,0.03589599650730717,0.0582253375135626,-0.9945127304774813,0.8361236955265701,11.897487598357905,0.0,-0.05112926910185252,0.401069872445805,0.492292846293527,0.2732471281817761,-0.7225833639414455,0.03589599650730717,0.0582253375135626,-0.9945127304774813
9.02,-97.57840778402172,30.01340459616494,269.77682524569383,288.44737052149316,0,9.266905376620768,205.45840883930293,11.032555793688577,18.992560841523126,-0.012182467131438637,-0.019441023947308747,0.2034071678854364,0.13704309232276896,-0.04096589182367564,-0.0648560039679226,1.4039478793906233,0.9544577869673272,4.590289237994585,0.0,0.09615057198051317,0.3610991338630862,0.5829666295834576,0.32265979472869916,-0.652417030112693,-0.04096589182367564,-0.0648560039679226,1.4039478793906233
9.2,-97.57987828187218,30.011070442557287,269.8043293707909,288.4733491014991,0,9.289246533780641,205.90183946278617,11.032548917657302,18.99347764569303,-0.00816943250256942,-0.012967520042512308,0.15280069498386561,0.11855230401275196,0.022294636827051243,0.035963910582202496,-0.28114707167539366,0.8486841684193085,119192581566.79436,0.0,-537640772132.1522,0.35831951096424136,0.5873740539387209,0.32417704265732267,-0.6492365469040479,0.022294636827051243,0.035963910582202496,-0.28114707167539366
9.3,-97.58135740908894,30.00873512968804,269.8089653513622,288.47794245289657,0,9.301329535281177,206.14658222417873,11.03254775866216,18.99363217837874,-0.014791272167542292,-0.02335312869245565,0.046359805712653974,0.1219022389476578,-0.06621839664972778,-0.10385608649943194,-1.0644088927121014,0.8426321894815118,218416698286.1602,0.0,-1990032095.5518556,0.4192344412517363,0.43269473835139777,0.23812619383858477,-0.7617832122587821,-0.06621839664972778,-0.10385608649943194,-1.0644088927121014
9.5,-97.58284504305435,30.00639869905537,269.83742767919597,288.5048231591783,0,9.325205286370707,206.63257072314389,11.0325406430802,18.994580922639866,-0.007438169827054279,-0.01168215316335268,0.1423116391688955,0.10941486696535888,0.0367655117024402,0.05835487764551506,0.4797591672812094,0.6573511626559992,218416698285.95645,0.0,-1990032095.406468,0.3562837104507932,0.5891106910044291,0.32329480698383783,-0.6492233661760661,0.0367655117024402,0.05835487764551506,0.4797591672812094
9.6,-97.58434124096233,30.004061202182097,269.84209334736454,288.5094499078751,0,9.336804070075642,206.87379486130766,11.032539476663159,18.99473644491215,-0.014961979079828379,-0.023374968732739004,0.04665668168570408,0.0885535639951828,-0.07523809252774126,-0.11692815569386367,-0.9565495748319176,0.7822768804043411,73596068089.3746,0.0,-533243093302.7562,0.4172888543237075,0.433665751818931,0.23731332526343185,-0.7625525643579868,-0.07523809252774126,-0.11692815569386367,-0.9565495748319176
9.8,-97.58584588981904,30.001722680614545,269.87040915024176,288.5361994910776,0,9.359698832486359,207.35264931030852,11.032532397712439,18.995680305008058,-0.007523244283547075,-0.011692607837758766,0.14157901438608103,0.1059509143947966,0.03719367398140632,0.05841180447490088,0.4746116635018822,0.6666514544998883,73596068097.0098,0.0,-533243093302.8994,0.35488015811779566,0.5895915605723621,0.32173619203701465,-0.6503289074073645,0.03719367398140632,0.05841180447490088,0.4746116635018822
9.91,-97.58735902644364,29.999383205921426,269.87505668352196,288.5408148848719,0,9.371899067548618,207.61395197282562,11.032531235829119,18.995835222784066,-0.013755787496320893,-0.021267951755632564,0.042250302547328054,0.12777214266070408,-0.056659483752489546,-0.08704858107158044,-0.9029882894432135,0.7920142802213884,-45596513476.353424,0.0,4397678829.156221,0.4158857223301803,0.4329171753815584,0.23557277185203068,-0.7642821824323188,-0.056659483752489546,-0.08704858107158044,-0.9029882894432135
10.11,-97.58888053746895,29.99704281969268,269.90311064423724,288.5673254509565,0,9.393757670112091,208.08523338561238,11.03252422233894,18.996770354807907,-0.007607555126583092,-0.011701931143726127,0.14026980357641655,0.12475773344478922,0.03074116184868911,0.04783010305953235,0.4900975051454442,0.8245938751199475,-325687861771.15344,0.0,-1057633732279.0938,0.35355084239198636,0.589930063927987,0.32011699748198286,-0.6515438814392764,0.03074116184868911,0.04783010305953235,0.4900975051454442
10.21,-97.59041036934231,29.994701573538357,269.92816403077563,288.59103252798343,0,9.404543563826579,208.31900697273568,11.032517958992306,18.997605467692523,-0.015298318733556254,-0.0234124615432304,0.25053386538388267,0.14619472189840824,-0.07690763606973053,-0.11710530399504107,1.1026406180746455,1.1525530613920407,-325687861779.2232,0.0,-1057633732279.096,0.3547018066027167,0.5863818428982588,0.31730908824078075,-0.6554829557141935,-0.07690763606973053,-0.11710530399504107,1.1026406180746455
10.4,-97.59194863832613,29.99235951908746,269.93506794289914,288.5977667513826,0,9.42415913391567,208.75970075385504,11.032516233014276,18.997835598096636,-0.00809615254643119,-0.01232660237313613,0.0363363795973951,0.16234743581990624,0.037906137826974114,0.05834662721102263,-1.1273551883499375,1.0901878872562993,49399240037268.9,0.0,-3547083396.6458983,0.3939021792270141,0.4915420898989681,0.26523811840898515,-0.7299836899553477,0.037906137826974114,0.05834662721102263,-1.1273551883499375
10.5,-97.59349517049891,29.990016707986833,269.959853981761,288.62122957882576,0,9.434444991005645,208.9897959256961,11.03251003650456,18.998661799392032,-0.015465321727816728,-0.02342811100628958,0.24786038861862014,0.14488100596778247,-0.07369169181385563,-0.11101508633153491,2.1152400902122577,1.1611337178406766,49399240037268.9,0.0,-3547083396.6458983,0.3534222328788497,0.586594636205989,0.3156537254085353,-0.6567816864963613,-0.07369169181385563,-0.11101508633153491,2.1152400902122577
10.7,-97.59504999175566,29.987673201899984,269.9857063499236,288.6456927796159,0,9.4542580720486,209.4461108084199,11.03250357341252,18.999523544997455,-0.007774106283733345,-0.011717530434243215,0.1292618408129447,0.12019202528662905,0.03845607722041705,0.05855290286023204,-0.5929927390283793,1.0222619670678958,49399240037268.9,0.0,-3547083396.6458983,0.3519623495684328,0.5884111836111996,0.31575020784084545,-0.6558937335696983,0.03845607722041705,0.05855290286023204,-0.5929927390283793
10.8,-97.59661309780894,29.985329032505984,269.99026965137546,288.65024606220845,0,9.46381831028365,209.6723102387163,11.032502432587156,18.99967565504585,-0.01563106053282559,-0.023441693940000286,0.045633014518670544,0.12292816553813131,-0.07856954249092135,-0.11724163505756904,-0.8362882629427296,0.965086398232191,49399240037268.9,0.0,-3547083396.6458983,0.41204367614762,0.42952346854124623,0.22984735017556018,-0.7699998665820181,-0.07856954249092135,-0.11724163505756904,-0.8362882629427296
11.0,-97.59818438418947,29.982984261498306,270.0158433915489,288.67445439935443,0,9.48257315403836,210.120742811271,11.032496039152113,19.00052811305163,-0.007856431902624222,-0.011723855038390282,0.1278687008672823,0.09613291808785347,0.038873143151006984,0.058589194508050224,0.41117843174306024,0.6093140447847342,49399240037268.9,0.0,-3547083396.6458983,0.35069442847529997,0.5886239358505521,0.3141178829667344,-0.6571645422424166,0.038873143151006984,0.058589194508050224,0.41117843174306024
11.1,-97.59976387624685,29.980638940583685,270.02031377733726,288.67892626999367,0,9.491600509133468,210.34295602326654,11.032494921555665,19.000677125911242,-0.01579492057388171,-0.02345320914621149,0.04470385788351921,0.07999167629231152,-0.07938488671257515,-0.1172935410782125,-0.8316484298376339,0.641523061480848,49399240037268.9,0.0,-3547083396.6458983,0.41150881171246634,0.4258618638856081,0.22663075314959902,-0.7732662364914915,-0.07938488671257515,-0.1172935410782125,-0.8316484298376339
11.31,-97.60135148915052,29.978293141480982,270.0443962171112,288.7017454059629,0,9.51012075599029,210.80520245661052,11.032488900945722,19.00147987390371,-0.0075600614460129036,-0.011170471917629826,0.11467828463791839,0.09701733377476655,0.039213614894613204,0.05848922489800769,0.33321155597332813,0.5756154961809329,49399240037268.9,0.0,-3547083396.6458983,0.35030337135969564,0.5869848083113118,0.31151595309672153,-0.6600713550761046,0.039213614894613204,0.05848922489800769,0.33321155597332813
11.41,-97.60294723789026,29.97594688592006,270.0484300207368,288.7058143818629,0,9.518585572674432,211.0232032194721,11.032487892494816,19.00161433402456,-0.01595748739745778,-0.023462555609228358,0.04033803625588931,0.117767965573269,-0.08397425951444908,-0.12292083691598577,-0.7434024838202934,0.6795409134280221,49399240037268.9,0.0,-3547083396.6458983,0.4151504086522077,0.40727066405359974,0.21554486179438617,-0.7844240925362274,-0.08397425951444908,-0.12292083691598577,-0.7434024838202934
11.6,-97.60455097727719,29.973600225640613,270.0746404995911,288.7306296930511,0,9.534352622539444,211.43359810560466,11.032481339875101,19.00248801665304,-0.008440733615382117,-0.012350843576033773,0.1379498887068194,0.11385842453025645,0.03956186201092465,0.0584826949115506,0.5137465918470019,0.7020004665543917,49399240037268.9,0.0,-3547083396.6458983,0.34739897057606045,0.5906765543617278,0.31176294702219853,-0.6581937619227974,0.03956186201092465,0.0584826949115506,0.5137465918470019
11.7,-97.60616277194441,29.971253222391034,270.0977052665796,288.7525054801362,0,9.542478248138067,211.64757386401845,11.032475573683355,19.003256842219322,-0.01611794667226724,-0.023470032495787135,0.23064766988511648,0.13988589550050237,-0.07677213056885149,-0.11119188919753402,0.9269778117829741,1.1091339668046865,49399240037268.9,0.0,-3547083396.6458983,0.34894503429691887,0.5861398691926042,0.3085191543845552,-0.6629429448755284,-0.07677213056885149,-0.11119188919753402,0.9269778117829741
11.91,-97.60778263634788,29.968905927927295,270.10410133615255,288.7587922684122,0,9.558521339111604,212.09233335092716,11.032473974665962,19.003470044538417,-0.00771364001650451,-0.011177592684471606,0.030457474156805893,0.15570009128272863,0.040020507884584264,0.05853542767293085,-0.9532866463252847,1.074761889503661,49399240037268.9,0.0,-3547083396.6458983,0.3898581017995152,0.48203457879836803,0.2530228422183707,-0.7427198439652035,0.040020507884584264,0.05853542767293085,-0.9532866463252847
12.0,-97.60941038476709,29.96655839401178,270.12602052432106,288.7796020877332,0,9.565338377177664,212.28102409047852,11.032468494868919,19.004200684144035,-0.0180860935467801,-0.026083710172386573,0.2435465352056734,0.13288001541762823,-0.11524948366972897,-0.16562352764349988,2.3676562338763096,1.0785694471061233,-114497306172512.1,0.0,-505240541578.93475,0.34849176736119514,0.5845803513892044,0.3060210986951958,-0.6657104385575836,-0.11524948366972897,-0.16562352764349988,2.3676562338763096
12.2,-97.61104609130594,29.964210672412154,270.1515384486735,288.80378108058915,0,9.57971409712487,212.696166348446,11.032462115387832,19.00505128162245,-0.008178532694245207,-0.011738607998133019,0.12758962176207023,0.1389714838090626,0.04953780426267465,0.07172551087126802,-0.579784567218018,1.3745039281972182,-114497306172512.1,0.0,-505240541578.93475,0.3449914462526103,0.5908725430991416,0.3084692726125518,-0.6608307254342587,0.04953780426267465,0.07172551087126802,-0.579784567218018
12.4,-97.61268972989349,29.961862814900222,270.1555518283917,288.8078471983512,0,9.593123517182995,213.10549604073105,11.032461112042903,19.00518506094639,-0.008218192937761116,-0.011739287559659965,0.020066898591153296,0.1423583360442185,-0.00019830121757954502,-3.3978076347321124e-06,-0.5376136158545818,1.6233839409806934,-114497306172512.1,0.0,-505240541578.93475,0.41059913613904286,0.40591451262720324,0.21133144811352178,-0.788657578977552,-0.00019830121757954502,-3.3978076347321124e-06,-0.5376136158545818
12.5,-97.61434114428478,29.959514873250782,270.18168018426684,288.83260279211345,0,9.599786040553841,213.30795839382168,11.032454579953933,19.00605600614223,-0.01651414391290024,-0.023479416494396416,0.26128355875130277,0.11889319336932395,-0.08295950975139153,-0.11740128934736492,2.4121666016015033,1.2355411498582416,-114497306172512.1,0.0,-505240541578.93475,0.34317727053283276,0.592297568827168,0.30753962388221323,-0.6609329245040286,-0.08295950975139153,-0.11740128934736492,2.4121666016015033
12.6,-97.61600044806158,29.9571668992405,270.1858053387151,288.83677881917146,0,9.606038736568184,213.50894039868865,11.032453548665321,19.006193511290505,-0.01659303776804683,-0.023479740102807595,0.04125154448274785,0.1033037929696391,-0.0007889385514658926,-3.2360841117906717e-06,-2.200320142685557,1.2928584229706355,-114497306172512.1,0.0,-505240541578.93475,0.40763635481271426,0.410894203921383,0.21276585266888373,-0.7872288405266278,-0.0007889385514658926,-3.2360841117906717e-06,-2.200320142685557
12.8,-97.6176674746333,29.95481892464675,270.2112993157935,288.86094657797855,0,9.618144713736385,213.90642769994,11.03244717517105,19.00704331052645,-0.008335132858547877,-0.011739872968750058,0.12746988539191695,0.12440219008727915,0.04128952454749454,0.05869933567028737,0.4310917045458432,1.2744685861303533,-114497306172512.1,0.0,-505240541578.93475,0.34217975787182076,0.5919671266765512,0.30570596863648175,-0.6625947441514464,0.04128952454749454,0.05869933567028737,0.4310917045458432
12.9,-97.61934230723762,29.95247104124646,270.2154377412153,288.8651403469289,0,9.623824505824299,214.10291533028746,11.032446140564696,19.00718125804051,-0.016748326043227794,-0.023478834002901378,0.04138425421786011,0.11997653838600533,-0.08413193184679947,-0.11738961034151361,-0.8608563117405715,1.0123579502144238,-114497306172512.1,0.0,-505240541578.93475,0.40589167160470424,0.4113842803661132,0.21186921228122826,-0.7881157032294979,-0.08413193184679947,-0.11738961034151361,-0.8608563117405715
13.1,-97.62102479894149,29.950123280815017,270.2413070423655,288.8896647498793,0,9.634782973649124,214.491334887058,11.032439673239407,19.00804356807885,-0.008412458519373474,-0.011738802157221825,0.12934650575118714,0.11686191420058856,0.04167933761927175,0.05870015922839797,0.43981125766663676,0.7802368621825645,-114497306172512.1,0.0,-505240541578.93475,0.3405231101680686,0.5930647132585599,0.30461867877991183,-0.6629673580708092,0.04167933761927175,0.05870015922839797,0.43981125766663676
13.2,-97.62271494264182,29.94777568512507,270.265205348316,288.9123482359767,0,9.64008225371969,214.6832495504536,11.03243369866292,19.0088401782772,-0.01690143700329833,-0.023475956899474765,0.23898305950467688,0.13577076341630137,-0.08488978483924885,-0.11737154742252981,1.0963655375349013,1.0384469432081909,-114497306172512.1,0.0,-505240541578.93475,0.34120354793739915,0.5903178882618697,0.3023938292245645,-0.6660802517113704,-0.08488978483924885,-0.11737154742252981,1.0963655375349013
13.4,-97.62441281106635,29.94542832594544,270.2715137898406,288.9185799158334,0,9.649684221289045,215.06244600009956,11.032432121552539,19.009050459661353,-0.008489342122643916,-0.011736795898151735,0.03154220762297638,0.15351591726094144,0.04206047440327184,0.05869580500661484,-1.037204259408497,0.9519434111026601,-114497306172512.1,0.0,-505240541578.93475,0.3829738433498805,0.48066498433231947,0.24555285325358442,-0.7496639276406835,0.04206047440327184,0.05869580500661484,-1.037204259408497
13.51,-97.62611816677446,29.94308125503993,270.2958521994301,288.94168058550343,0,9.654842275225526,215.26835139763472,11.032426036950142,19.009861739981005,-0.015503233710102406,-0.02133700823188706,0.2212582689956198,0.13752739733344171,-0.06376265079507751,-0.0872746575794125,1.7246914670240399,1.0595727053158186,35951422965537.68,0.0,494829511230.79846,0.33947715241265836,0.5915803411324335,0.30141392715203386,-0.6662864305193484,-0.06376265079507751,-0.0872746575794125,1.7246914670240399
13.7,-97.62783113215798,29.940734504166223,270.32213401130696,288.96660210246637,0,9.663037462910298,215.61953260223407,11.032419466497172,19.010737800376898,-0.009015607281675784,-0.012351320387943027,0.13832532566766567,0.11606449677567006,0.03414540225487705,0.04729309391549503,-0.436489175410286,0.9312353963759357,-514025883726.39484,0.0,-485257575159.2516,0.33746197132258227,0.594750640739135,0.3022117440844068,-0.664122846308517,0.03414540225487705,0.04729309391549503,-0.436489175410286
13.8,-97.62955165944206,29.938388135074714,270.32622576143996,288.9707680298737,0,9.666969318359119,215.80207290163648,11.03241844355964,19.010874192047996,-0.017205272840783194,-0.023463690915086155,0.04091750132999947,0.11912802687316441,-0.08189665559107294,-0.1111237052714297,-0.9740782433766482,0.9095537471377277,-630397222664.5704,0.0,-2016240893.23916,0.40171370343193974,0.40900483115329606,0.20726864666441144,-0.7927047727105992,-0.08189665559107294,-0.1111237052714297,-0.9740782433766482
14.0,-97.63127960068596,29.936042209507374,270.35274878755854,288.9959206574125,0,9.674426947852506,216.16237186624852,11.03241181280311,19.011758292918618,-0.008639706219497643,-0.01172962783670077,0.13261513059291066,0.10157336753029567,0.042827833106427904,0.05867031539192713,0.4584881463145576,0.6586870858009336,-630397222667.9933,0.0,-2016240893.065494,0.33592355929367584,0.5956305786296561,0.30104240266188015,-0.6646450540794927,0.042827833106427904,0.05867031539192713,0.4584881463145576
14.1,-97.6330150477839,29.933696759196643,270.35681252916726,289.0000655880957,0,9.677768327319374,216.34011451823014,11.032410796867708,19.01189375097224,-0.017354470979427168,-0.02345450310730976,0.040637416087179336,0.08277998756643352,-0.08714764759929557,-0.11724875270609031,-0.9197771450573166,0.7496013752367177,-630397222656.6726,0.0,-2016240893.0637321,0.4004745952056782,0.4076379693095375,0.2054731296368353,-0.7945012130697404,-0.08714764759929557,-0.11724875270609031,-0.9197771450573166
14.3,-97.63475783246594,29.931351825864233,270.38366432756,289.0255312153696,0,9.684045763949957,216.69074666367496,11.03240408391811,19.012788810918664,-0.008713923410184019,-0.01172466666204735,0.13425899196363317,0.10151022318436834,0.04320273784621552,0.05864918222631174,0.4681078793822667,0.6655415128893557,-630397222647.2651,0.0,-2016240893.236108,0.33434148333937036,0.5966190261212087,0.2999362989702106,-0.6650561831519668,0.04320273784621552,0.05864918222631174,0.4681078793822667
14.41,-97.63650805629872,29.929007491220013,270.3876846258338,289.02964068094565,0,9.687053398557447,216.88081797993723,11.032403078843542,19.012922820861128,-0.015911125752604137,-0.021312133129279022,0.03654816612559214,0.12443581468763491,-0.0654291122038196,-0.08715878606574293,-0.8882802348912866,0.7811068637911982,-116371338917.11919,0.0,483241334266.0998,0.39942226678143433,0.405534345726555,0.20332382215462222,-0.7966574989164109,-0.0654291122038196,-0.08715878606574293,-0.8882802348912866
14.6,-97.63826553068645,29.92666380696088,270.4148603689029,289.05541477507205,0,9.691885330512319,217.20444565163936,11.032396284907774,19.01382867896343,-0.009249865198581286,-0.012335180311215273,0.14303022667951718,0.12129624400359103,0.035059266073804565,0.04724712009507248,0.5604318976522384,0.8106142529253477,-116371338917.11919,0.0,483241334266.0998,0.3327686293213677,0.5975917788384097,0.29882534766587243,-0.6654716498820171,0.035059266073804565,0.04724712009507248,0.5604318976522384
14.7,-97.64003029687163,29.924320804769614,270.4394904035122,289.0788101222782,0,9.694243603590284,217.37238167213866,11.032390127399122,19.014649680117074,-0.0176476618517541,-0.02343002191267382,0.2463003460928812,0.1420680618700437,-0.08397796653172843,-0.11094841601458587,1.032701194133644,1.1290449848488955,-116371338917.11919,0.0,483241334266.0998,0.33371803951532464,0.5941869800636065,0.2963327750984843,-0.6691494520862814,-0.08397796653172843,-0.11094841601458587,1.032701194133644
14.9,-97.64180239593601,29.921978556313725,270.44569627825086,289.08497195682696,0,9.697932466868796,217.70326335739577,11.032388575930437,19.014856542608364,-0.008860495321911752,-0.011711242279446248,0.031029373693342965,0.15894316397890873,0.043935832649211505,0.058593898166137554,-1.0763548619976855,1.059403544570133,-116371338917.11919,0.0,483241334266.0998,0.3762731694581584,0.4789217663622517,0.23820559365393382,-0.7565120876776191,0.043935832649211505,0.058593898166137554,-1.0763548619976855
15.0,-97.64358163880135,29.919637093244322,270.46940564356566,289.10751133138757,0,9.699684029643766,217.86619431635535,11.032382648589108,19.015646854785523,-0.01779242865339376,-0.023414630694027577,0.23709365314800918,0.1387927073485455,-0.08931933331482042,-0.11703388414581371,2.0606427945466694,1.14350441829614,-116371338917.11919,0.0,483241334266.0998,0.3330137348528309,0.5931823079041771,0.2942604590008941,-0.6713027515640209,-0.08931933331482042,-0.11703388414581371,2.0606427945466694
15.2,-97.64536804623037,29.91729647719498,270.49515315177433,289.1319601980902,0,9.70237181946891,218.1870002605127,11.032376211712055,19.016505105059146,-0.008932037145115177,-0.011703080246707784,0.128737541043336,0.11565378225262735,0.04430195754139308,0.058557752236599175,-0.5417805605233678,1.0362467138864122,-116371338917.11919,0.0,483241334266.0998,0.33090038427485746,0.5966897815568698,0.2952158773073019,-0.6688152405994099,0.04430195754139308,0.058557752236599175,-0.5417805605233678
15.3,-97.64716166882758,29.91495676978059,270.49829805707833,289.1352660473848,0,9.703318871113735,218.34486098772135,11.03237542548573,19.016609935235945,-0.017936225972050326,-0.02339707414389347,0.03144905303997758,0.11720666777684463,-0.09004188826935021,-0.1169399389718552,-0.9728848800335704,1.0257121372129676,-116371338917.11919,0.0,483241334266.0998,0.40602383952647547,0.35650998167651554,0.17591254182794663,-0.8228608948837102,-0.09004188826935021,-0.1169399389718552,-0.9728848800335704
15.5,-97.64896233704012,29.912618002596233,270.5246022155759,289.1602409826868,0,9.704813550534473,218.65546287267864,11.032368849446106,19.017486740519196,-0.009003341062694434,-0.011693835921793336,0.13152079248783413,0.09558674378836166,0.044664424546779616,0.05851619111050088,0.5003586972392845,0.7136123762463447,-116371338917.11919,0.0,483241334266.0998,0.3291766096184612,0.5980204121413676,0.2943048931882008,-0.6688788950085403,0.044664424546779616,0.05851619111050088,0.5003586972392845
15.6,-97.65077012115867,29.910280247216026,270.5275997852747,289.1634140331451,0,9.705159438312679,218.80819022595023,11.03236810005368,19.017586659509156,-0.018077841185544296,-0.023377553802070933,0.029975696987776353,0.07720608965346872,-0.09074500122849893,-0.11683717880277639,-1.0154509550005812,0.7939615705775765,-116371338917.11919,0.0,483241334266.0998,0.40646523368599613,0.3464845437015119,0.17006077690247845,-0.8281387606795549,-0.09074500122849893,-0.11683717880277639,-1.0154509550005812
15.8,-97.65258482131829,29.90794351519201,270.55359412610414,289.1881043579514,0,9.705451234258522,219.1084638150948,11.032361601468473,19.018453137536806,-0.009073500798066854,-0.011683660120080867,0.12997170414735068,0.09671144241031605,0.04502170193738697,0.058469468409950015,0.499980035797869,0.7171385080074831,-116371338917.11919,0.0,483241334266.0998,0.32801094670339864,0.5981028853036436,0.2927951790378347,-0.6700393574756628,0.04502170193738697,0.058469468409950015,0.499980035797869
15.91,-97.65440659749936,29.905607918052972,270.5564922999282,289.1911894205962,0,9.70515674847293,219.2706541433393,11.032360876925017,19.01854974333094,-0.016561601646132785,-0.0212327012639756,0.026347034764223252,0.11681319801020633,-0.068073644073327,-0.08680946494449804,-0.9420424489375269,0.7836732895555036,-116371338917.11919,0.0,483241334266.0998,0.406241904815668,0.33935554137977103,0.1656819924644662,-0.832078607271924,-0.068073644073327,-0.08680946494449804,-0.9420424489375269
16.1,-97.65623521952843,29.903273457303357,270.5830475705572,289.21640975796055,0,9.704293744548353,219.54582189342418,11.032354238107361,19.019434919018572,-0.009624326468769387,-0.012286635524292707,0.13976458225783878,0.11364963407710107,0.03651197461770185,0.04708455652464649,0.5969344604927093,0.7999963646278784,-116371338917.11919,0.0,483241334266.0998,0.3263010555211717,0.5994245702822213,0.2918915850951298,-0.6700873885236134,0.03651197461770185,0.04708455652464649,0.5969344604927093
16.21,-97.65807070707905,29.9009402044221,270.60848900375976,289.24059072031235,0,9.703565010561551,219.70223234012272,11.032347877749059,19.02028296679199,-0.016686250460199233,-0.021211389829612914,0.23128575638690105,0.13903398267019762,-0.06419930901299893,-0.08113413004836594,0.8320106739005704,1.169558207982781,-116371338917.11919,0.0,483241334266.0998,0.32632725919348665,0.5980642268062883,0.29046321956192017,-0.6719083409242567,-0.06419930901299893,-0.08113413004836594,0.8320106739005704
16.4,-97.65991316967273,29.898608230861505,270.6125003672751,289.24472470466776,0,9.701337766311099,219.96736217026677,11.03234687490818,19.02041667890917,-0.0096971715457155,-0.012273545055756887,0.021112439554527854,0.15725004575460547,0.036784625865704294,0.04704128828345333,-1.1061753517493458,1.1027028161934471,-116371338917.11919,0.0,483241334266.0998,0.38932993456917914,0.4048388955610027,0.19609127167210572,-0.8037884571597944,0.036784625865704294,0.04704128828345333,-1.1061753517493458
16.5,-97.66176233667989,29.896277528046102,270.63810133082444,289.2690600888621,0,9.700111070216082,220.1043312027646,11.032340474667294,19.021270044360815,-0.018491670071511826,-0.023307028154028967,0.25600963549322475,0.13795112956847155,-0.08794498525796202,-0.11033483098271923,2.348971959386936,1.2062813941933794,-116371338917.11919,0.0,483241334266.0998,0.3248668269778262,0.5988220052626134,0.2892994804998805,-0.672442979980549,-0.08794498525796202,-0.11033483098271923,2.348971959386936
16.71,-97.66361826732054,29.89394819737151,270.6649750661221,289.29458895637254,0,9.69661737315813,220.3861572640814,11.032333756233468,19.022165835537404,-0.008837764955517576,-0.01109205083138705,0.12797016808414238,0.11691793925626723,0.04597097674282957,0.058166558679246985,-0.6097117495670564,1.1333984373413017,-116371338917.11919,0.0,483241334266.0998,0.32340336407082104,0.6009074978958563,0.28954199830655036,-0.6711824448664214,0.04597097674282957,0.058166558679246985,-0.6097117495670564
16.8,-97.66548105066543,29.89162030020333,270.66760024688773,289.2974334079693,0,9.69476240686503,220.5045198979427,11.032333099938278,19.022253341562923,-0.02069759272100356,-0.025865524090917844,0.029168675173549617,0.11960775216080703,-0.13177586406095557,-0.16414970288367575,-1.0977943656732545,1.115688106506274,-116371338917.11919,0.0,483241334266.0998,0.40522043673218006,0.31833270733871416,0.15297471599147366,-0.8432433939025635,-0.13177586406095557,-0.16414970288367575,-1.0977943656732545
17.01,-97.6673504156368,29.88929384787596,270.69424834885643,289.32275630010133,0,9.690013423783132,220.775021494724,11.032326437912786,19.023141611628546,-0.008901737958903255,-0.011078344416031973,0.1268957236604923,0.09641312219972213,0.05617073696238217,0.07041514130898005,0.46536689755686794,0.7666973314913272,-116371338917.11919,0.0,483241334266.0998,0.32218589932815067,0.601114927548483,0.2881170722316638,-0.6721946465430585,0.05617073696238217,0.07041514130898005,0.46536689755686794
17.11,-97.66922654100932,29.886968941691535,270.6968666497905,289.3255991779073,0,9.687343775459846,220.90102607307088,11.032325783337551,19.02322888832635,-0.018761253725188397,-0.023249061844268722,0.02618300934045748,0.07767126890964395,-0.09859515766285352,-0.12170717428237009,-1.0071271432003697,0.8608633070219394,-116371338917.11919,0.0,483241334266.0998,0.4036607177500132,0.3176747412093872,0.151855250132838,-0.8444410972650409,-0.09859515766285352,-0.12170717428237009,-1.0071271432003697
17.3,-97.67110914541104,29.884645572918732,270.7236344294899,289.3510391227684,0,9.681944023696332,221.13542212361364,11.032319091392628,19.024121147649666,-0.009908444219550543,-0.012228256698963266,0.14088305104953658,0.09733271090218298,0.04659373424019892,0.058004237606870436,0.6036844300477807,0.7636571804340282,-116371338917.11919,0.0,483241334266.0998,0.3207685417094757,0.6017968527172608,0.28692935848637174,-0.6727701196900581,0.04659373424019892,0.058004237606870436,0.6036844300477807
17.41,-97.67299845732421,29.882323852791657,270.7260634698026,289.3537097538982,0,9.67836121181027,221.26811091169353,11.03231848413255,19.02420211566009,-0.017175562847042376,-0.021106546609769707,0.02208218466121677,0.12297219050000252,-0.06606471479538063,-0.08071172646187716,-1.0800078762574583,0.8957511605585353,-116371338917.11919,0.0,483241334266.0998,0.40472513305922075,0.30189927116291587,0.14355527171630456,-0.8511441010216508,-0.06606471479538063,-0.08071172646187716,-1.0800078762574583
17.6,-97.67489414508628,29.88000377250874,270.75296185463577,289.3792769442152,0,9.671838252821594,221.49206935496062,11.032311759536341,19.02509872848786,-0.009977304010907219,-0.012210948857459407,0.14157044649024053,0.12015810599854937,0.037885572821763726,0.04681893553847495,0.628885588573805,0.9257016782460642,-116371338917.11919,0.0,483241334266.0998,0.3193475226970725,0.6024913185664178,0.28575202764560104,-0.6733254409984594,0.037885572821763726,0.04681893553847495,0.628885588573805
17.7,-97.67679630689084,29.877685413231575,270.778374169965,289.40345633830884,0,9.66823268727574,221.6072705583609,11.032305406457509,19.0259458056655,-0.01902161804551424,-0.02318359277165221,0.2541231532922038,0.13635912484775098,-0.09044314034607212,-0.10972643914193038,1.1255270680196567,1.1688792652237923,-116371338917.11919,0.0,483241334266.0998,0.31959249973924064,0.6005768485764086,0.284095881511857,-0.6756164689914347,-0.09044314034607212,-0.10972643914193038,1.1255270680196567
17.9,-97.67870508078843,29.875368856083817,270.7825354038452,289.40775485512023,0,9.6599671980035,221.83212031178587,11.032304366149038,19.026084513461505,-0.009543869487984614,-0.0115827857387885,0.02080616940105536,0.15681475413948476,0.04738874278764829,0.058004035164318755,-1.1665849194557463,1.0418220417050712,21.99159816724744,0.0,-0.08131038060130322,0.37983190873510086,0.41196911963463967,0.19435217401752053,-0.8051312924168165,0.04738874278764829,0.058004035164318755,-1.1665849194557463
18.01,-97.68062005468757,29.87305407215003,270.80685464642,289.4309164850104,0,9.655308430259389,221.95262027996372,11.032298286338394,19.026895154880666,-0.017408853628482143,-0.02104349030715732,0.22108402340718197,0.13683434475288409,-0.07149985582270287,-0.08600640516698692,1.8207077636920106,1.1300481441000005,7.488344182852046,0.0,0.0811909640856868,0.3189922029193927,0.5993074446824581,0.2820109788134134,-0.6778970195048182,-0.07149985582270287,-0.08600640516698692,1.8207077636920106
18.2,-97.68254140635558,29.87074117247458,270.83277208993167,289.4555760591152,0,9.64654597866023,222.15543897824057,11.032291806977517,19.02775906966439,-0.010112377200088377,-0.012173156186572127,0.1364075974298614,0.11107367331723021,0.03840250751786239,0.046685969055712095,-0.44566539988063997,1.0004384882393371,7.488344182852046,0.0,0.0811909640856868,0.31725788795630394,0.6021026740352587,0.282578821317578,-0.6759948314830998,0.03840250751786239,0.046685969055712095,-0.44566539988063997
18.3,-97.68446922341968,29.868430228060493,270.8357792287307,289.45880183919695,0,9.641546575953903,222.25947103435806,11.032291055192816,19.027859307624357,-0.019278170641001405,-0.023109444140878236,0.030071387990346494,0.11437804032370669,-0.09165793440912898,-0.10936287954305954,-1.0633620943951338,0.9623592759843056,7.488344182852046,0.0,0.0811909640856868,0.3916831909008253,0.34643361992043264,0.16215138767468726,-0.8368243259070246,-0.09165793440912898,-0.10936287954305954,-1.0633620943951338
18.5,-97.68640315336776,29.866121219868347,270.8610167592846,289.482830160332,0,9.631160573543445,222.46189603116898,11.032284745810179,19.02870055864282,-0.009669649740402554,-0.011545040960729877,0.12618765276954536,0.09665150599552866,0.048042604502994427,0.057822015900742,0.48058132389599606,0.702401254068988,7.488344182852046,0.0,0.0811909640856868,0.3163535567142957,0.6015611632638731,0.28084401721718133,-0.6776217469946978,0.048042604502994427,0.057822015900742,0.48058132389599606
18.6,-97.6883434735494,29.863814278815145,270.86396658018765,289.48600699418745,0,9.625582231959704,222.56027997522926,11.032284008354953,19.028798886006257,-0.019403201816316776,-0.02306941053202361,0.029498209030407032,0.08131679039461749,-0.09733552075914084,-0.1152436957129357,-0.9668944373913695,0.776618594743854,7.488344182852046,0.0,0.0811909640856868,0.3908316287551635,0.3423810623616145,0.15941310349204765,-0.839412478186828,-0.09733552075914084,-0.1152436957129357,-0.9668944373913695
18.8,-97.69028979117677,29.86150937577318,270.8906227921698,289.5113676151821,0,9.614058616464888,222.75136889183602,11.032277344301956,19.02968742640566,-0.009731588136858739,-0.011524515209817607,0.13328105991064423,0.11559213480760874,0.04835806839729036,0.05772447661103023,0.5189142544011879,0.7235324258462614,7.488344182852046,0.0,0.0811909640856868,0.31413763141175144,0.6041865214569456,0.28059131799709996,-0.6764205112837877,0.04835806839729036,0.05772447661103023,0.5189142544011879
18.9,-97.69224244332561,29.85920667156892,270.89588279810465,289.51671069840756,0,9.607930057710307,222.8440653715732,11.032276029300473,19.029862759936822,-0.019526521488444776,-0.023027042042614233,0.05260005934872082,0.1770913642201289,-0.09794933351586245,-0.11502526832796871,-0.8068100056192513,1.0675650349671535,7.488344182852046,0.0,0.0811909640856868,0.36369423798351497,0.45469400505024005,0.21059259951382778,-0.7852583142246705,-0.09794933351586245,-0.11502526832796871,-0.8068100056192513
19.1,-97.69420108693618,29.85690612698189,270.9385601030191,289.55706712181524,0,9.595425463610212,223.02374177495693,11.032265359974245,19.031285336767304,-0.009793218052820268,-0.01150272293514815,0.2133865245721692,0.24379381480701853,0.04866651717812184,0.057621595537329595,0.8039323261172304,0.9319199225542816,7.488344182852046,0.0,0.0811909640856868,0.3068307076998011,0.6188417203360291,0.2858762467520725,-0.6642022384236078,0.04866651717812184,0.057621595537329595,0.8039323261172304
19.2,-97.69616576881413,29.854607792743547,270.981912714101,289.5980584026398,0,9.589110074511659,223.11071371301512,11.032254521821475,19.032730423803365,-0.019646818779506667,-0.02298334238343407,0.4335261108190117,0.29977567534405225,-0.0985360072668661,-0.11480619448286164,2.201395862468472,0.9080299120675308,7.488344182852046,0.0,0.0811909640856868,0.30601895338956436,0.6194739588277496,0.28541906366522696,-0.6641839900186517,-0.0985360072668661,-0.11480619448286164,2.201395862468472
19.4,-97.6981367556316,29.852311949536176,271.05698944070764,289.66873835281984,0,9.575799922451477,223.27890573501014,11.032235752639822,19.03523298135692,-0.009854934087343316,-0.011479216036853798,0.3753836330332674,0.3491186990512548,0.048959423460816935,0.05752063173290156,-0.2907123889287227,0.8508801055106229,7.488344182852046,0.0,0.0811909640856868,0.30110341792789247,0.6294607980763164,0.2892124206515406,-0.6553411410388822,0.048959423460816935,0.05752063173290156,-0.2907123889287227
19.5,-97.70011349392801,29.85001833799175,271.0982826943736,289.7078090962399,0,9.568902256951475,223.36011834377368,11.032225429326406,19.036609423145787,-0.019767382964203935,-0.02293611544427388,0.41293253665969,0.33817505158976363,-0.09912448876860479,-0.11456899407419921,0.3754890362642207,0.9923146831349101,7.488344182852046,0.0,0.0811909640856868,0.3051824526456687,0.618863792633242,0.28362380447785723,-0.6659045083931178,-0.09912448876860479,-0.11456899407419921,0.3754890362642207
19.7,-97.70209643011118,29.847727278690826,271.1596807888186,289.76569665168415,0,9.554338420270977,223.5167587098137,11.032210079802795,19.038656026293953,-0.00991468091584128,-0.01145529650461445,0.30699047222498277,0.32209792951576155,0.049263510241813455,0.05740409469829737,-0.529710322173538,0.7491570625296173,7.488344182852046,0.0,0.0811909640856868,0.30108220213975284,0.627073317751104,0.2865901166820812,-0.6587827158778917,0.049263510241813455,0.05740409469829737,-0.529710322173538
19.8,-97.70408489045812,29.84543839216143,271.1753096399552,289.7807567031112,0,9.54662900696317,223.59217950532195,11.03220617259001,19.03917698799851,-0.01988460346936421,-0.02288886529395707,0.15628851136568533,0.31136336130776315,-0.09969922553522789,-0.11433568789342456,-1.507019608592953,0.7622626793134505,7.488344182852046,0.0,0.0811909640856868,0.3200473158152282,0.5788946393525435,0.2639252449655808,-0.7019930036960585,-0.09969922553522789,-0.11433568789342456,-1.507019608592953
20.0,-97.70607945111612,29.843152198877934,271.2460833658961,289.8474244084495,0,9.531055687310324,223.73720556134907,11.032188479158526,19.041536112196535,-0.009972803290025957,-0.011430966417478356,0.3538686297045514,0.3122970799774717,0.04955900089669145,0.057289494382393766,0.9879005916943339,0.7803047755657324,7.488344182852046,0.0,0.0811909640856868,0.29885722919325786,0.6297667638422141,0.2863201364935115,-0.6573423454768227,0.04955900089669145,0.057289494382393766,0.9879005916943339
20.1,-97.7080797981037,29.84086842925997,271.2781414869612,289.877864513772,0,9.522962541520014,223.80680437628936,11.03218046462826,19.042604716232038,-0.0200034698757176,-0.022837696179642493,0.32058121065119394,0.3347696407702482,-0.10030666585691499,-0.11406729762163974,-0.33287419053357,0.7037052063760687,7.488344182852046,0.0,0.0811909640856868,0.30548049604882604,0.6128799861699574,0.2779178284588249,-0.6736627269715961,-0.10030666585691499,-0.11406729762163974,-0.33287419053357
20.3,-97.71008589731154,29.83858733367127,271.36182832568534,289.95662443266895,0,9.506429765559973,223.94015811381485,11.032159542918578,19.045394277522846,-0.01003049603923504,-0.011405477943498039,0.41843419362067075,0.39577096299546244,0.049864869182412966,0.057161091180722476,0.48926491484738577,0.48231375882181793,7.488344182852046,0.0,0.0811909640856868,0.2966167667033373,0.6324876530365345,0.2860452719638131,-0.6558627637348705,0.049864869182412966,0.057161091180722476,0.48926491484738577
20.4,-97.71209771450349,29.836308782418605,271.40369080682416,289.99624608793596,0,9.497894209975001,224.00390710958922,11.032149077298294,19.046789693560804,-0.020118171919421432,-0.022785512526653437,0.4186248113882219,0.41514727734093365,-0.10087675880186607,-0.1138003458315564,0.0019061776755114185,0.3021989240961372,7.488344182852046,0.0,0.0811909640856868,0.3010894040221927,0.6207893213193515,0.28002015489308735,-0.6674986907665595,-0.10087675880186607,-0.1138003458315564,0.0019061776755114185
20.51,-97.71411487531746,29.834032965750637,271.4546631573614,290.0443964615499,0,9.488348336249008,224.0717720395872,11.032136334210659,19.048488771912044,-0.01833782558161428,-0.020689242436071665,0.4633850048838252,0.4062906511877724,0.01618496670733731,0.019057000823470137,0.4069108499600193,0.4024979411944482,1234984155187.23,0.0,-223481488775.38095,0.29864374765603674,0.6253480793000951,0.28135718875939464,-0.6637694057690893,0.01618496670733731,0.019057000823470137,0.4069108499600193
20.7,-97.71613807526658,29.831759933856848,271.54031340651494,290.1250064127603,0,9.471331260063305,224.1834088667562,11.03211492164837,19.051343780217167,-0.010648420784850602,-0.0119633257567874,0.45079078501873876,0.5306539807126158,0.04047055156191458,0.045925877259391415,-0.06628536771098219,1.8293113949064215,1234984155187.23,0.0,-223481488775.38095,0.2945484013643827,0.6335912428165201,0.28426937396564866,-0.6565015607788623,0.04047055156191458,0.045925877259391415,-0.06628536771098219
20.9,-97.71816667973998,29.82948958686638,271.5957763857436,290.1773669651671,0,9.452386930748661,224.29326263823438,11.032101055903563,19.053192546191454,-0.01014302236697521,-0.011351734952338472,0.27731489614325355,0.5176799473707823,0.002526992089376965,0.003057954022244651,-0.8673794443774291,3.1719641262868494,1234984155187.23,0.0,-223481488775.38095,0.2966478448506444,0.6274867599055133,0.28081009537175355,-0.6628771474610174,0.002526992089376965,0.003057954022244651,-0.8673794443774291
21.0,-97.7202007340039,29.82722202484701,271.6997844287526,290.27516887230325,0,9.443416577585273,224.3452378494807,11.032075053892811,19.05665948095842,-0.020340542639160897,-0.022675620193694745,1.0400804300900142,0.48957867928260174,-0.10197520272185542,-0.11323885241356112,7.6276553394674975,3.124254147647999,1234984155187.23,0.0,-223481488775.38095,0.29239859943769475,0.6361830706550526,0.28396023012025196,-0.6550883508114279,-0.10197520272185542,-0.11323885241356112,7.6276553394674975
21.1,-97.72224045320259,29.82495735780395,271.7351389714996,290.30871518514317,0,9.433587048984613,224.39524216856668,11.032066215257124,19.057837965716654,-0.02039719198691585,-0.022646670430610204,0.3535454274702892,0.43705705400273914,-0.000566493477549514,0.00028949763084539924,-6.865350026197152,3.3826228101275495,1234984155187.23,0.0,-223481488775.38095,0.29965333888383655,0.6176308256787594,0.2749324817845,-0.6731657820529489,-0.000566493477549514,0.00028949763084539924,-6.865350026197152
21.3,-97.72428565235941,29.822695715678822,271.7998076522006,290.369703353823,0,9.413353756789146,224.4893293283274,11.03205004808695,19.059993588406687,-0.010225995784125566,-0.011308210625635735,0.32334340350502205,0.4902666834171955,0.0508559810139516,0.05669229902487255,-0.15101011982633636,3.5670548378572255,1234984155187.23,0.0,-223481488775.38095,0.29359175025388706,0.6308791724034611,0.28007457993707446,-0.6613271381725193,0.0508559810139516,0.05669229902487255,-0.15101011982633636
21.4,-97.72633623637772,29.82043695834853,271.81840581133497,290.38757031317294,0,9.402844921386642,224.53340798736608,11.032045398547165,19.0606135270445,-0.02050584018306311,-0.022587573302921753,0.18598159134342437,0.3381499683634,-0.10279844398937764,-0.11279362677286259,-1.3736181216160062,2.30525952656859,1234984155187.23,0.0,-223481488775.38095,0.308586431020245,0.5919229382056664,0.26209197302223036,-0.6969285813435067,-0.10279844398937764,-0.11279362677286259,-1.3736181216160062
21.6,-97.72839211004194,29.818181285624135,271.9271190916509,290.4897944112346,0,9.382038112473875,224.61562566862588,11.032018220227087,19.06423730305503,-0.010279368321093184,-0.011278363621975825,0.5435664015797592,0.6101693574924555,0.051132359309848906,0.05654604840472884,1.7879240511816488,3.802662913022415,-2400879259735.1323,0.0,218479405203.08234,0.28963036243498286,0.6377009422101204,0.2816134481286496,-0.6558548828004542,0.051132359309848906,0.05654604840472884,1.7879240511816488
21.8,-97.73045333801848,29.815928617249785,271.9830243381707,290.5425900571231,0,9.360038138624455,224.68991180060564,11.032004243915457,19.066100811272356,-0.01030613988270094,-0.011263341871750083,0.2795262325989266,0.774985750171601,-0.00013385780803878506,7.510875112870719e-05,-1.3202008449041678,4.800182617343235,1910803978599.5308,0.0,440434534113.0734,0.29268501692020354,0.629228020614471,0.2771356034230994,-0.6645324945097341,-0.00013385780803878506,7.510875112870719e-05,-1.3202008449041678
21.9,-97.73251994485682,29.813679232901638,272.1544924981951,290.7035753325444,0,9.350226709833542,224.72407635352403,11.03196137687545,19.071816416606502,-0.02066606838340634,-0.0224938434814708,1.7146816002440712,1.0432495448614274,-0.1035992850070562,-0.11230501609720957,14.35155367645175,4.906234115695881,2983246009228.4453,0.0,220544199642.09384,0.28688232969595096,0.6416177002496871,0.2818172115083493,-0.6531495348939511,-0.1035992850070562,-0.11230501609720957,14.35155367645175
22.01,-97.73459149499044,29.811432852186712,272.2807118213085,290.8222101788506,0,9.338622115317586,224.75936147849427,11.031929822044672,19.07602372737695,-0.018832273942010928,-0.02042164286296106,1.147448391939871,1.2941848496157424,0.016670858558139667,0.018838187440997124,-5.156665530038044,5.08616983999199,1491623004614.2358,0.0,110272099820.89095,0.28717338332180525,0.6397872293197991,0.28030512943658625,-0.6554637926860194,0.016670858558139667,0.018838187440997124,-5.156665530038044
22.21,-97.73666838273788,29.80918967464182,272.58665375938295,291.10913407750326,0,9.317787581159998,224.81734819391818,11.031853336560154,19.086221791979433,-0.010384438737176574,-0.011215887724453961,1.529709690372277,1.6818003190993451,0.04223917602417192,0.04602877569253566,1.9113064921620373,5.2642500530350205,0.05893260004168814,0.0,-0.26867484764216193,0.28452506957218865,0.6447103246772061,0.28169626338397524,-0.6511845339341674,0.04223917602417192,0.04602877569253566,1.9113064921620373
22.31,-97.7387503923037,29.8069497997325,272.7664734665825,291.2779885813699,0,9.307399413942523,224.84335436165958,11.031808381633354,19.092215782219416,-0.020820095658252047,-0.022398749093213634,1.7981970719955982,1.8412820221108965,-0.10435656921075695,-0.11182861368759911,2.684873816233268,2.688131579653181,0.21771544148386815,0.0,-0.2702692865291837,0.2848696808500757,0.6426981744380015,0.2800662866300716,-0.6537210388228902,-0.10435656921075695,-0.11182861368759911,2.684873816233268
22.5,-97.74083737777956,29.80471317685188,273.18788619936754,291.6731276359592,0,9.288025255769519,224.88727439718247,11.031703028450158,19.106262873312254,-0.010984134083451717,-0.01177169937168348,2.217961751500139,2.1099808410282277,0.051768218814738226,0.05593184063963202,2.2092877868659886,1.7015455076502541,0.3276052074663987,0.0,-0.21965838805052665,0.2828784679862979,0.6461452314010414,0.2808324738276846,-0.6508526975677695,0.051768218814738226,0.05593184063963202,2.2092877868659886
22.7,-97.74292922314511,29.802479865319622,273.69034931649816,292.14427142805715,0,9.267613398223489,224.92572553980804,11.031577412670876,19.123011643883274,-0.010459226827777038,-0.01116655766129075,2.512315585653093,2.441561429320843,0.0026245362783734053,0.003025708551963656,1.471769170764777,2.8666616327210925,0.1296779464135959,0.0,-0.1154433301458245,0.2820963521441215,0.6467921580737929,0.28038362608562784,-0.6507430941502954,0.0026245362783734053,0.003025708551963656,1.471769170764777
22.81,-97.74502617226916,29.80025008438082,273.9643728790383,292.40147512198695,0,9.256101927167604,224.94346972623535,11.03150890678024,19.132145762634607,-0.01906317385501934,-0.020270735807285924,2.491123295819568,2.6762281477368304,-0.07821770024765769,-0.08276525587268382,-0.19265718030477627,2.545381897185561,278020607336.76434,0.0,109562471951.93744,0.28215328923106153,0.6454173375403359,0.27901917894178,-0.6526670510766513,-0.07821770024765769,-0.08276525587268382,-0.19265718030477627
22.9,-97.74712804891058,29.79802377320491,274.25124855035875,292.67075459298843,0,9.24717363829193,224.9561900051043,11.03143718786241,19.14170828501196,-0.023354184904652242,-0.024736790843446835,3.187507459116058,2.536174053872077,-0.047677900551476776,-0.049622833735121316,7.737601814405459,3.5573403014079297,556041214673.4412,0.0,219124943903.92206,0.2814479679200703,0.6458512653850753,0.27846017008878643,-0.6527810643916414,-0.047677900551476776,-0.049622833735121316,7.737601814405459
23.1,-97.74923459671936,29.7958009008846,274.84559879614056,293.2282486275473,0,9.226466544080347,224.97866237724656,11.031288600300964,19.161519959871352,-0.010532739043895695,-0.011114361601549503,2.971751228909014,3.2428625482422566,0.06410722930378182,0.06811214620948569,-1.0787811510352043,12.319146368063935,297927517292.85376,0.0,435285728277.8903,0.28006633020214017,0.6479125949893273,0.2786269697141367,-0.6512596499778097,0.06410722930378182,0.06811214620948569,-1.0787811510352043
23.3,-97.75134592923763,29.793581646434784,275.1491332843781,293.5132512944598,0,9.20226010777742,224.99313866120556,11.031212716678905,19.171637776145936,-0.010556662591341175,-0.011096272249080425,1.5176724411875906,3.30114313037636,-0.00011961773722740002,9.044676234538603e-05,-7.270393938607144,15.537510588619805,297927517292.85376,0.0,435285728277.8903,0.2801180593206905,0.6465726083414627,0.27730549280234523,-0.6531304606635463,-0.00011961773722740002,9.044676234538603e-05,-7.270393938607144
23.4,-97.7534621499007,29.79136604879144,275.7537059853818,294.08055226080074,0,9.19446664599207,224.9973774103485,11.031061573503655,19.191790199512727,-0.021162206630692022,-0.022155976433460484,6.045727010037596,3.112362701428575,-0.10605544039351072,-0.11059704184380294,45.28054568850102,15.068488861323678,297927517292.85376,0.0,435285728277.8903,0.27877600731439045,0.6484857603743214,0.27736680127087504,-0.651780495174831,-0.10605544039351072,-0.11059704184380294,45.28054568850102
23.6,-97.75558285203803,29.78915401681058,276.31023387178107,294.602941292271,0,9.171923870258162,224.99985518102872,11.030922441532054,19.210341129059366,-0.010603510686664057,-0.011060159904285724,2.7826394319961483,3.0801039724047277,0.05279347972013908,0.05547908264587301,-16.315437890207008,15.985427900468997,297927517292.85376,0.0,435285728277.8903,0.2782299920246842,0.6486006499685995,0.2767022036264869,-0.6521818449684877,0.05279347972013908,0.05547908264587301,-16.315437890207008
23.7,-97.75770863887438,29.786945669267173,276.53459161852595,294.8138600748816,0,9.159901392705136,224.9980940924433,11.030866352095368,19.21781972061753,-0.02125786836344946,-0.022083475434087535,2.2435774674489064,3.311900211106032,-0.10654357676785631,-0.11023315529802045,-5.390619645472533,14.66586766663238,297927517292.85376,0.0,435285728277.8903,0.2786914221346633,0.6462151650860753,0.27490985419415925,-0.6551042846053454,-0.10654357676785631,-0.11023315529802045,-5.390619645472533
23.8,-97.75983894353067,29.784741304854037,276.81562460289035,295.07796757662277,0,9.148306213142776,224.99433309597197,11.030796093849277,19.22718748676301,-0.021303046562905745,-0.022043644131350647,2.8103298436439728,2.6424663269281194,-0.00045178199456284067,0.00039831302736887666,5.667523761950583,5.662968392064546,297927517292.85376,0.0,435285728277.8903,0.27767042484419835,0.6473864594240399,0.2746581014637186,-0.6544866955268029,-0.00045178199456284067,0.00039831302736887666,5.667523761950583
24.0,-97.76197397902516,29.78254058218078,277.3509620044733,295.58071554925846,0,9.124435981147034,224.98081213686774,11.03066225949888,19.245032066815778,-0.010675177472450097,-0.011003613366291671,2.676687007914618,2.7627371343845835,0.05313934545227843,0.05520015382529508,-0.6682141786467756,3.0855562065739597,297927517292.85376,0.0,435285728277.8903,0.27632644924298067,0.6493455347320806,0.2747482957078969,-0.6530753738871805,0.05313934545227843,0.05520015382529508,-0.6682141786467756
24.1,-97.76411345827444,29.780343929772755,277.6208081052008,295.83441966384277,0,9.11231926788499,224.9710527751641,11.0305947979737,19.254026936840027,-0.021394792492798992,-0.021966524080241044,2.698461007275303,2.8607972772802306,-0.10719615020348743,-0.10962910713949217,0.21773999360684607,3.3075289544186175,297927517292.85376,0.0,435285728277.8903,0.2764561254341263,0.6477715711621618,0.273332486777268,-0.6551742928230699,-0.10719615020348743,-0.10962910713949217,0.21773999360684607
24.3,-97.76625679409442,29.778151056069962,278.29760828932797,296.4701300762139,0,9.089057586037809,224.94553845617358,11.030425597927668,19.2765869429776,-0.0107166790999003,-0.0109643685139638,3.384000920635811,2.9587124076979707,0.05339056696449365,0.055010777831386415,3.427699566802552,2.7403534273050227,297927517292.85376,0.0,435285728277.8903,0.27494580486639264,0.6502471740771707,0.2737029360431004,-0.6531999079856118,0.05339056696449365,0.055010777831386415,3.427699566802552
24.4,-97.76840520920142,29.77596231942598,278.57099984343995,296.727266935434,0,9.07657999510314,224.9297846328522,11.03035725003914,19.285699994781332,-0.021484151070013016,-0.02188736643983493,2.7339155411198717,3.044863178061564,-0.10767471970112946,-0.10922997925871362,-6.500853795159532,2.95689980932423,297927517292.85376,0.0,435285728277.8903,0.27516218642099777,0.6483493099211924,0.2720926749353438,-0.6556634195494352,-0.10767471970112946,-0.10922997925871362,-6.500853795159532
24.6,-97.77055738621324,29.7737778381069,279.2310072564529,297.3474653529386,0,9.052371332556314,224.8922871593628,11.030192248185886,19.307700241881765,-0.010760885059113282,-0.010922406595401514,3.3000370650648376,3.094176988294964,0.05361633005449791,0.05482479922216631,2.8306076197247894,3.074821239908787,14680508355.277252,0.0,4882793063.337362,0.27366285070759316,0.6507520594844528,0.27239429600153564,-0.6537826463934054,0.05361633005449791,0.05482479922216631,2.8306076197247894
24.71,-97.77271433765016,29.77159725029028,279.57281681961564,297.66896307179826,0,9.03862899354893,224.8682612775204,11.030106795795096,19.319093893987187,-0.019608649426510902,-0.01982352560561532,3.107359665115584,2.748396615804142,-0.08043422152179697,-0.08091926372921684,-1.7516127268114043,3.6792074552007117,6506551344.269072,0.0,223758694623.41968,0.27359625388740727,0.6496075909263873,0.27115221596499817,-0.6554628467326458,-0.08043422152179697,-0.08091926372921684,-1.7516127268114043
24.9,-97.77487555593594,29.76942096406407,280.13239722650997,298.19507824641505,0,9.014231019021729,224.82107954624416,11.029966900693372,19.337746574217,-0.011374833083042121,-0.01145413803268096,2.945160036285965,3.413575591672499,0.04333587549194147,0.044049408278602424,-0.8536822569980063,11.188412452785524,213824154941.36908,0.0,-225015281239.28033,0.27247600796756627,0.6510190073864655,0.27098664172192394,-0.6545970646984859,0.04333587549194147,0.044049408278602424,-0.8536822569980063
25.1,-97.77704107339898,29.767248627425545,280.4634097730513,298.50655448991836,0,8.985495933958338,224.76364584287256,11.029884147556738,19.348780325768374,-0.010827587315205124,-0.01086168319263321,1.65506273270663,3.3144761628528046,0.0027362288391849466,0.0029622742002387045,-6.450486517896582,13.877490557536785,432923080891.9662,0.0,-3111104241.258008,0.2723646281626928,0.6500358446499865,0.26985245309636746,-0.656087313971128,0.0027362288391849466,0.0029622742002387045,-6.450486517896582
25.2,-97.7792103622733,29.765080868280254,281.0694002574889,299.0764814880459,0,8.975355301623052,224.7319440989134,11.029732649935628,19.368980008582962,-0.021692888743274814,-0.02167759145290706,6.059904844376107,3.3781559970168082,-0.10865301428069922,-0.10815908260274079,44.048421116695714,14.769230184681785,432923080891.9662,0.0,-3111104241.258008,0.2711663840280398,0.6516739558110195,0.26979755566625796,-0.6549802488986118,-0.10865301428069922,-0.10815908260274079,44.048421116695714
25.4,-97.78138434469963,29.762917404440962,281.6303069804064,299.60417251211203,0,8.94821553070147,224.66257787119167,11.029592423254899,19.38767689934688,-0.010869912131639164,-0.010817319196458935,2.8045336145874087,3.0775185626699297,0.054114883058178444,0.05430136128224081,-16.27685614894355,16.58191739392212,432923080891.9662,0.0,-3111104241.258008,0.27054236236531126,0.6518197152392434,0.2690670769886112,-0.6553936199506621,0.054114883058178444,0.05430136128224081,-16.27685614894355
25.5,-97.78356236272639,29.760758013626614,281.9728816447214,299.926713996801,0,8.935096251230048,224.6249164703611,11.02950677958882,19.39909605482405,-0.02178018026754072,-0.021593908143486523,3.4257466431500427,3.966424749579841,-0.10910268135901399,-0.10776588947027435,6.212130285626253,24.607174472287745,432923080891.9662,0.0,-3111104241.258008,0.2703969657740853,0.6509275788646556,0.2679869631473299,-0.6567813605429416,-0.10910268135901399,-0.10776588947027435,6.212130285626253
25.7,-97.78574485831085,29.75860301346123,282.2612687556854,300.1983514118236,0,8.904557128310831,224.54364546385537,11.029434682811079,19.408708958522848,-0.010912477922318014,-0.010775000826921437,1.4419355548201958,3.3264971699381123,0.05433851172611372,0.05409453658282562,-9.91905544164927,18.88250374220474,432923080891.9662,0.0,-3111104241.258008,0.26995023865764056,0.6506482259799978,0.2670944563532244,-0.6576049772189534,0.05433851172611372,0.05409453658282562,-9.91905544164927
25.8,-97.78793091332014,29.75645280147291,282.8712275208833,300.772434366592,0,8.893782090320075,224.50003947021156,11.029282193119778,19.429040917362776,-0.02186055009289558,-0.021502119883187426,6.099587651978508,3.398554752774963,-0.1094807217057741,-0.10727119056265837,46.57652097158246,16.304862779667342,432923080891.9662,0.0,-3111104241.258008,0.26856835188496414,0.6527473427799918,0.2672216321384451,-0.6560370006156052,-0.1094807217057741,-0.10727119056265837,46.57652097158246
26.01,-97.79012105953228,29.75430709509278,283.47189205023255,301.3379168808429,0,8.864007371422817,224.40203165560322,11.029132026987442,19.449063068341083,-0.010429267676873376,-0.010217649429190474,2.860307282615578,3.347305412841963,0.054434678171534086,0.05373557359046146,-15.42514461601389,15.073852393927265,432923080891.9662,0.0,-3111104241.258008,0.26792796046533696,0.6529866224382741,0.2665638217261582,-0.6563282775138403,0.054434678171534086,0.05373557359046146,-15.42514461601389
26.1,-97.79231560863732,29.752165531653898,283.7567132559826,301.60636708093585,0,8.851380837055933,224.3573630475999,11.029060821686004,19.45855710853275,-0.024383878944907678,-0.02379514932092286,3.164680063889596,3.6303702176757957,-0.15505123631149248,-0.15086110990813786,3.3819197919335364,13.402547207757717,1986622148.8927631,0.0,218144537152.54413,0.2680329603565554,0.6513877895612471,0.2651629078273674,-0.6584382371077402,-0.15505123631149248,-0.15086110990813786,3.3819197919335364
26.2,-97.79451394223831,29.750028658390274,284.07366215271367,301.90507894241824,0,8.837259906350814,224.30585847190287,11.028981584461821,19.469122071757123,-0.02198333600986804,-0.021368732636233744,3.169488967310553,3.0418712892047095,0.02400542935039689,0.024264166846891668,0.04808903420956959,4.687417934910803,1986622148.8927631,0.0,218144537152.54413,0.26724393618189357,0.6520068086868004,0.2646714584194579,-0.6583439975409354,0.02400542935039689,0.024264166846891668,0.04808903420956959
26.4,-97.79671639185247,29.747896722435783,284.6451221573353,302.44335116580345,0,8.80809645155065,224.19694427119282,11.028838719460666,19.488170738577843,-0.011012248070798631,-0.01065967977245567,2.8573000231082903,3.063636566693814,0.05485543969534724,0.053545264318890555,-1.560944721011318,1.7908651099039967,1986622148.8927631,0.0,218144537152.54413,0.26598619414248376,0.6537004932210948,0.26456328575250776,-0.6572163095358569,0.05485543969534724,0.053545264318890555,-1.560944721011318
26.5,-97.79892232891217,29.745769020823143,284.9608242890851,302.74099716234605,0,8.793669325470615,224.13953948679304,11.028759793927728,19.498694142969505,-0.0220593705969915,-0.02127701612639724,3.157021317497834,2.721976443861972,-0.11047122526192711,-0.10617336353941417,2.997212943895395,2.625747873392516,1986622148.8927631,0.0,218144537152.54413,0.26597253323242387,0.6525067633460748,0.26340299797580763,-0.6588720634621817,-0.11047122526192711,-0.10617336353941417,2.997212943895395
26.7,-97.80113235476607,29.74364636048288,285.55465056952715,303.3005183816485,0,8.764157845355884,224.018847306362,11.028611337357617,19.518488352317572,-0.011050129269492044,-0.010613301701312177,2.969131402210234,3.2597089190070276,0.05504620663749747,0.0533185721254255,-0.939449576438004,11.417481472961597,1986622148.8927631,0.0,218144537152.54413,0.2646790932758191,0.6542814127117793,0.2633168058124095,-0.657666382248111,0.05504620663749747,0.0533185721254255,-0.939449576438004
26.9,-97.80334628068012,29.741528018242292,285.84594702254924,303.5752929040447,0,8.731257634545745,223.89032966901024,11.028538513244362,19.528198234084975,-0.011069629570243973,-0.010591711202945258,1.4564822651104288,3.2702798886904825,-9.75015037596453e-05,0.0001079524918345957,-7.563245685499053,17.001285757655303,1986622148.8927631,0.0,218144537152.54413,0.26475768265697386,0.6527660029545247,0.26198736692415997,-0.6596685034417121,-9.75015037596453e-05,0.0001079524918345957,-7.563245685499053
27.0,-97.80556409783873,29.739414870824397,286.4317689743622,304.1274723584469,0,8.719077450211282,223.82314338951878,11.02839205775641,19.54772563247874,-0.02217817158609105,-0.021131474178943375,5.858219518129802,3.2226626400744833,-0.1110854201584692,-0.10539762975997967,44.01737253019311,16.418831559999788,1986622148.8927631,0.0,218144537152.54413,0.26337175933217244,0.65478426345683,0.26199815067975124,-0.6582171782595492,-0.1110854201584692,-0.10539762975997967,44.01737253019311
27.1,-97.80778544734575,29.737306094846943,286.7227724534966,304.40206719290234,0,8.703863605886283,223.75400942197925,11.028319306886626,19.557425748449887,-0.02221349507024652,-0.021087759774544836,2.910034791343564,3.2108999156487874,-0.0003532348415546898,0.0004371440439853859,-29.481847267861962,16.265672318800178,1986622148.8927631,0.0,218144537152.54413,0.2634610015239378,0.6532777402992455,0.2607025913303584,-0.6601898617664098,-0.0003532348415546898,0.0004371440439853859,-29.481847267861962
27.3,-97.81001071022561,29.735202576821326,287.3065811908001,304.9525406730773,0,8.673204767092841,223.60991079962054,11.0281733547023,19.57688603969334,-0.01112631439930571,-0.010517590128085213,2.9190436865175786,3.495852131853977,0.05543590335470425,0.052850848232298304,0.045044475870073146,14.785739710696157,1986622148.8927631,0.0,218144537152.54413,0.2620720138487406,0.6552957124741303,0.2607010313394113,-0.6587418014889102,0.05543590335470425,0.052850848232298304,0.045044475870073146
27.4,-97.81223926742439,29.73310351315162,287.5976008194355,305.22724582207115,0,8.65774556599126,223.5349525491609,11.02810059979514,19.586586693981186,-0.022285571987766182,-0.0209906366970718,2.9101962863541697,2.903474913410072,-0.1115925758846071,-0.1047304656898681,-0.08847400163409092,5.99730178538845,1986622148.8927631,0.0,218144537152.54413,0.2621652321081799,0.6537895113146208,0.25942181997086666,-0.6607034019071316,-0.1115925758846071,-0.1047304656898681,-0.08847400163409092
27.6,-97.81447192981084,29.73100971013351,288.1738574748772,305.7707899542444,0,8.626536653598883,223.37923482686017,11.027956535631281,19.605795249162572,-0.01116331193223614,-0.010469015090546058,2.88128327720837,2.892624133905339,0.05561130027764942,0.05260810803262796,-0.14456504572899725,0.1876891591379941,10552786214.164062,0.0,110279146937.57402,0.2607734400141893,0.6557896221420387,0.25939199283768183,-0.65928216912462,0.05561130027764942,0.05260810803262796,-0.14456504572899725
27.8,-97.81670821817761,29.728920573953314,288.75313209490827,306.3173002292754,0,8.595060011551368,223.2158053548394,11.027811716976272,19.625104403163608,-0.011181441833869639,-0.010445680900979007,2.8963731001553685,2.889148136631561,-9.06495081674962e-05,0.00011667094783525616,0.07544911473499365,0.261447015771561,19960007567.51406,0.0,222279271939.12402,0.26013576865279125,0.6560481384235185,0.2587651021736417,-0.6595231943120137,-9.06495081674962e-05,0.00011667094783525616,0.07544911473499365
27.9,-97.81894726324215,29.72683628068691,289.0387099196172,306.58703017405077,0,8.579174033712953,223.13120773855115,11.027740322520096,19.63462366398724,-0.022390450645418038,-0.02084293266403181,2.8557782470892943,2.8772633363911453,-0.11209008811548637,-0.10397251763053024,-0.4059485306607511,0.27900051401548415,19960007567.51406,0.0,222279271939.12402,0.2602511026836001,0.6544840618616298,0.2574783050995708,-0.661532235589563,-0.11209008811548637,-0.10397251763053024,-0.4059485306607511
28.0,-97.82118954564794,29.724757046298773,289.3288641913941,306.8611053227001,0,8.56326494222575,223.0446931867965,11.02766778395215,19.64429547304647,-0.022422824057883553,-0.02079234388137478,2.9015427177688067,2.582681231577684,-0.0003237341246551488,0.0005058878265702946,0.45764470679511743,1.688845791325186,19960007567.51406,0.0,222279271939.12402,0.25958969771142604,0.6547896263491911,0.2568682871224888,-0.6617268448070819,-0.0003237341246551488,0.0005058878265702946,0.45764470679511743
28.2,-97.82343605596552,29.722682816640916,289.89904265492737,307.3992801680863,0,8.531146354983381,222.8659287422218,11.027525239336267,19.663301421830912,-0.011232551587880875,-0.010371148289287683,2.850892317666488,3.108607605423943,0.05595136235001359,0.05210597796043567,-0.25325200051159324,9.909073404701982,19960007567.51406,0.0,222279271939.12402,0.2582175381448933,0.6567752469693312,0.25683652763542253,-0.6603067287518306,0.05595136235001359,0.05210597796043567,-0.25325200051159324
28.4,-97.8256849746936,29.720613717451915,290.1807087571993,307.66544046307916,0,8.495889790185657,222.67954380099016,11.0274548228107,19.672690291906644,-0.01124459364042711,-0.010345495945003372,1.4083305113595708,3.0465511827331517,-6.021026273117535e-05,0.00012826172142155247,-7.212809031534613,12.802702520682066,19960007567.51406,0.0,222279271939.12402,0.258335698056629,0.6551875537820264,0.25554808014307767,-0.6623345946075183,-6.021026273117535e-05,0.00012826172142155247,-7.212809031534613
28.5,-97.82793800226004,29.718549454355884,290.73330484748254,308.1872031460493,0,8.482289073159915,222.58350394593364,11.027316673788128,19.69111016158275,-0.02253027566439382,-0.020642630960309976,5.525960902832516,2.935299584000011,-0.1128568202396655,-0.10297135015306458,41.17630391472886,13.113066466067796,19960007567.51406,0.0,222279271939.12402,0.2569695585646616,0.6572123650028485,0.2555525174009607,-0.6608566138796502,-0.1128568202396655,-0.10297135015306458,41.17630391472886
28.7,-97.8301940290232,29.71649013286148,291.2424276773347,308.6680552453725,0,8.448956378632584,222.3857508088605,11.027189393080667,19.708080922577825,-0.011280133815816424,-0.010296607472017919,2.5456141492608797,2.808266080368926,0.05625070924288718,0.05173011744146047,-14.901733767858234,13.3195412195323,19960007567.51406,0.0,222279271939.12402,0.2564160361186664,0.6572938875780222,0.2548822337069101,-0.6612492788006178,0.05625070924288718,0.05173011744146047,-14.901733767858234
28.8,-97.83245222527279,29.714436478360863,291.47695240059505,308.88986746796274,0,8.432008223328172,222.28404631583962,11.027130761899851,19.715898413353166,-0.022581962495848665,-0.02053654500617312,2.3452472326033225,2.933254023882177,-0.1130182868003208,-0.10239937534155057,-2.003669166575544,12.05987669152793,19960007567.51406,0.0,222279271939.12402,0.2566943998304536,0.6552052983711092,0.2533752316076045,-0.6637883654372845,-0.1130182868003208,-0.10239937534155057,-2.003669166575544
28.9,-97.83471337123102,29.71238810612876,291.69850797337904,309.0994608557181,0,8.414878653080097,222.1804625388317,11.027075373006655,19.723283599112634,-0.022611459582293974,-0.020483722321032342,2.215555727839889,2.0215942978364554,-0.0002949708644530973,0.0005282268514077955,-1.2969150476343627,4.890228383939462,19960007567.51406,0.0,222279271939.12402,0.2561487444407155,0.6551987620762671,0.2526456530100779,-0.6642835064264982,-0.0002949708644530973,0.0005282268514077955,-1.2969150476343627
29.1,-97.8369779970538,29.71034411132139,292.1051671540734,309.48377580887546,0,8.380107565583263,221.96767563099903,11.02697370821148,19.736838905135777,-0.011323129113875846,-0.01021997403684679,2.0332959034717812,2.2350055735908576,0.05644165234208984,0.05131874142092704,-0.9112991218405256,7.199852309870624,596320722896.3516,0.0,633390124178.974,0.2547498452549918,0.657509062614089,0.2528459492033129,-0.6624600175817221,0.05644165234208984,0.05131874142092704,-0.9112991218405256
29.3,-97.83924464283172,29.708306218975547,292.2986925033311,309.6669612500455,0,8.34302152353511,221.74742791358565,11.026925326874167,19.74328975011104,-0.011333228889611786,-0.010189461729215346,0.9676267462884914,2.1312803733065833,-5.049887867970161e-05,0.0001525615381572145,-5.328345785916468,8.583855849580974,596320722896.3516,0.0,633390124178.974,0.2551482377751341,0.6550144306393447,0.25116124708753,-0.6654122784979966,-5.049887867970161e-05,0.0001525615381572145,-5.328345785916468
29.4,-97.84151453859123,29.706272814007527,292.659951284066,310.0085026209724,0,8.3270594822842,221.63451843546756,11.026835012178983,19.755331709468866,-0.02269895759511135,-0.0203340496802089,3.612587807348936,2.1008381733351116,-0.11365728705499807,-0.10144587950993769,26.44961061060501,8.798596714569651,596320722896.3516,0.0,633390124178.974,0.2536286490072063,0.6576708692858765,0.2514981281964722,-0.6632422088567719,-0.11365728705499807,-0.10144587950993769,26.44961061060501
29.6,-97.84378653429569,29.704244561212214,293.0253025614475,310.3539538165238,0,8.291445561402941,221.40315333108774,11.026743674359638,19.767510085381584,-0.01135997852230714,-0.010141263976563975,1.8267563869076493,1.8599338236914078,0.056694895364020254,0.0509639285182239,-8.929157102206307,9.850431837289557,596320722896.3516,0.0,633390124178.974,0.2530456406934355,0.6579199657285935,0.25094501154451687,-0.6634273310639662,0.056694895364020254,0.0509639285182239,-8.929157102206307
29.7,-97.84606099984651,29.702223025262022,293.23163560289436,310.5492969307397,0,8.273820013931235,221.28470798768143,11.026692091099276,19.77438785342981,-0.0227446555082627,-0.02021535950191876,2.06333041446844,2.3852951396241777,-0.11384676985955801,-0.10074095525354998,2.365740275607959,14.316311989072698,596320722896.3516,0.0,633390124178.974,0.2531207729629541,0.6560631347950405,0.2494152827707867,-0.6658100736530724,-0.11384676985955801,-0.10074095525354998,2.365740275607959
29.9,-97.84833805508423,29.700207230705978,293.39737397806874,310.70632215472483,0,8.235999163953377,221.04231803929207,11.026650656505483,19.779912465935624,-0.011385276188562483,-0.010078972780220888,0.8286918758719283,2.0541862162552613,0.056796896598501276,0.050681933608489535,-6.173192692982581,10.663684772760018,596320722896.3516,0.0,633390124178.974,0.2529099200278058,0.6551093815333286,0.24831186869537739,-0.6672402014593831,0.056796896598501276,0.050681933608489535,-6.173192692982581
30.0,-97.85061699978966,29.69819567196868,293.7568164588709,311.04628801749243,0,8.219808180708444,220.91838420715567,11.026560795885281,19.791893881962363,-0.022789447054378475,-0.020115587372977188,3.5944248080215346,2.021896787862074,-0.1140417086581583,-0.10036614592756157,27.65732932149567,9.462608207710685,596320722896.3516,0.0,633390124178.974,0.2511956434613716,0.6585823803001323,0.24908031672703507,-0.6641754232756579,-0.1140417086581583,-0.10036614592756157,27.65732932149567
30.2,-97.85289796368492,29.696189913349354,294.1482390194317,311.41650542881274,0,8.184068900255577,220.6650663675043,11.02646294024514,19.804941300647723,-0.011404819476297274,-0.010028793096630332,1.9571128028039266,1.9360960074937335,0.056923137890406206,0.050433971381734465,-8.186560026088069,9.050137741887658,596320722896.3516,0.0,633390124178.974,0.2504874316134361,0.6590466216970133,0.2485512089030149,-0.6641806181953126,0.056923137890406206,0.050433971381734465,-8.186560026088069
30.3,-97.85518189643464,29.694191409020856,294.31474863610697,311.5743135949347,0,8.165869863734368,220.53569361851822,11.026421312840974,19.810491621203564,-0.022839327497194646,-0.01998504328497546,1.6650961667528226,2.043503214197882,-0.11434508020897209,-0.09956250188344988,-2.9201663605109993,8.084319962190609,596320722896.3516,0.0,633390124178.974,0.25096945955247907,0.6558637117984464,0.24643689033782054,-0.6679266284544478,-0.11434508020897209,-0.09956250188344988,-2.9201663605109993
30.4,-97.85746819764698,29.69219879302873,294.4781755874701,311.72922007496044,0,8.147617728507905,220.40451928982168,11.026380456103132,19.815939186249004,-0.022863012123366874,-0.019926159921262322,1.6342695136313872,1.4444877742551867,-0.00023684626172228667,0.0005888336371313988,-0.30826653121436054,4.087214470840756,596320722896.3516,0.0,633390124178.974,0.25035027690317146,0.6559962431085156,0.24574754493967,-0.6682827336076728,-0.00023684626172228667,0.0005888336371313988,-0.30826653121436054
30.6,-97.85975585687481,29.690210769290182,294.7513322543057,311.9878015204763,0,8.110517626063595,220.13678929290208,11.026312166936423,19.825044408476856,-0.01143829613916109,-0.009940118692739334,1.3657833341778576,1.1654470895387308,0.057123579921028116,0.04993020614261423,-1.3424308972676289,2.4881133570800347,596320722896.3516,0.0,633390124178.974,0.2489535140866436,0.6586614885844871,0.2462066017399075,-0.6660101354628662,0.057123579921028116,0.04993020614261423,-1.3424308972676289
30.7,-97.8620467736168,29.68822995159317,294.81120331960204,312.0448954864219,0,8.091175055477708,220.00024552374597,11.026297199170099,19.827040110653403,-0.02290916741984055,-0.019808176970137904,0.5987106529636449,0.8437834234230094,-0.11470871280679704,-0.09868058277398781,-7.6707268121422905,2.4100628835994877,596320722896.3516,0.0,633390124178.974,0.25291141054257044,0.6456997464792297,0.24044148905580728,-0.6791874160750123,-0.11470871280679704,-0.09868058277398781,-7.6707268121422905
30.91,-97.86433899731851,29.686254903595405,294.92917786854395,312.1568876955922,0,8.050433925457158,219.70772426727808,11.026267705532863,19.83097259561813,-0.010915350960550225,-0.009404990465541978,0.561783566390007,0.5646837493572842,0.05711341171090607,0.049538983355218495,-0.1758432693982748,2.7139010300940907,596320722896.3516,0.0,633390124178.974,0.24931958690154524,0.6543149314494194,0.24300717449880307,-0.6713115723802865,0.05711341171090607,0.049538983355218495,-0.1758432693982748
31.11,-97.86663450737353,29.684286528823385,294.9401807885052,312.1678158620476,0,8.010577571516478,219.42189622015724,11.026264954802873,19.83133935961684,-0.01147755027510304,-0.009841873860096974,0.055014599806213677,0.3420440465005347,-0.002810996572764087,-0.0021844169727749845,-2.5338448329189758,2.4754505160301705,10.351834101354086,0.0,0.28176299606852506,0.27600031510444467,0.5685415816260738,0.2103817089509765,-0.7458711903292929,-0.002810996572764087,-0.0021844169727749845,-2.5338448329189758
31.21,-97.8689305931246,29.682324280671466,294.9638944690409,312.1907541720098,0,7.990821341109457,219.27635088452203,11.02625902638274,19.832129815634694,-0.022960857510696216,-0.01962248151919227,0.23713680535706436,0.28179751623246974,-0.11483307235593011,-0.09780607659095157,1.8212220555084808,0.9919059401948054,9.39607875960425,0.0,0.27850584116755767,0.25984990327847785,0.6200429939479046,0.22885285450827825,-0.7040249174608079,-0.11483307235593011,-0.09780607659095157,1.8212220555084808
31.3,-97.87123036386473,29.680368712400863,294.9864334018795,312.21258448531864,0,7.973049121891111,219.1438674006834,11.02625339164953,19.832881113395985,-0.02555300822359013,-0.02172853634003032,0.25043258709539906,0.23345569448959141,-0.028801674587710217,-0.023400609120422813,0.14773090820371917,1.00527282658816,9.39607875960425,0.0,0.27850584116755767,0.2597138001504336,0.6180473665504019,0.2272475821861306,-0.7063460420375354,-0.028801674587710217,-0.023400609120422813,0.14773090820371917
31.5,-97.87352983883824,29.678419547138734,295.04600588091466,312.26940614829795,0,7.933645564074849,218.8444214991993,11.026238498529771,19.834866862697154,-0.01149737486755957,-0.00974582631064539,0.2978623951759129,0.39901057145735963,0.07027816678015306,0.05991355014692486,0.23714904040257,1.0645670678631465,9.39607875960425,0.0,0.27850584116755767,0.2495824016584969,0.646864341630851,0.2372725616136951,-0.680424044118179,0.07027816678015306,0.05991355014692486,0.23714904040257
31.6,-97.87583348724203,29.676476697877206,295.077889702197,312.300068909893,0,7.913966283155863,218.6921055835275,11.02623052757445,19.8359296567399,-0.023036484037959,-0.019428492615282955,0.3188382128234889,0.3734663120248577,-0.11539109170399266,-0.09682666304637427,0.20975817647575704,1.6940882812542362,9.39607875960425,0.0,0.27850584116755767,0.2538381338307033,0.6321398792020826,0.2309775446742229,-0.6947047925500367,-0.11539109170399266,-0.09682666304637427,0.20975817647575704
31.8,-97.87813735822654,29.674540357472438,295.2548298639261,312.46779462229233,0,7.87575248962879,218.38232166987942,11.026186292534017,19.841827662130868,-0.0115193549225268,-0.009681702023840479,0.8847008086453942,0.3574689423426636,0.0575856455771612,0.048733952957212556,2.829312979109537,2.2251442788583367,9.39607875960425,0.0,0.27850584116755767,0.24416226718721062,0.6586922025649508,0.24004469669107742,-0.6699909799039264,0.0575856455771612,0.048733952957212556,2.829312979109537
32.0,-97.88044291089703,29.672611448643668,295.23276746644075,312.4474867245839,0,7.835579387809247,218.06571433346755,11.02619180813339,19.84109224888136,-0.011527763352461348,-0.009644544143849777,-0.11031198742671261,0.31096197712322915,-4.204214967273871e-05,0.00018578939995350717,-4.975063980360552,2.6312260989560676,9.39607875960425,0.0,0.27850584116755767,0.25714077904547245,-0.6181474305721225,-0.2244807982429215,-0.708082442268689,-4.204214967273871e-05,0.00018578939995350717,-4.975063980360552
32.1,-97.88275285431455,29.670687793972277,295.24977201221134,312.46409536740214,0,7.815789707880017,217.90486942364905,11.026187556996947,19.84165906707371,-0.023099434175150816,-0.019236546713905237,0.17004545770589388,0.2582410068601507,-0.11571670822689303,-0.09592002570055323,2.8035744513260252,2.6884917193434914,9.39607875960425,0.0,0.27850584116755767,0.260709297127456,0.6042734176438703,0.21866378227231026,-0.7204654394505488,-0.11571670822689303,-0.09592002570055323,2.8035744513260252
32.2,-97.88506423749716,29.668770625900834,295.24392750582984,312.4591148939313,0,7.795785208116568,217.74233985920674,11.026189018123542,19.841464250194328,-0.023113831826151125,-0.019171680714435705,-0.058445063814928366,0.13831240023347216,-0.0001439765100030834,0.0006486599946953128,-2.28490521520819,2.4798776802078755,9.39607875960425,0.0,0.27850584116755767,0.28963978025801906,-0.4901302173918001,-0.1768147839046964,-0.8028808752762072,-0.0001439765100030834,0.0006486599946953128,-2.28490521520819
32.41,-97.88737638942102,29.666860786732205,295.25544075400126,312.47053681936654,0,7.754066994823455,217.39557644805382,11.0261861398115,19.841848025133373,-0.011010247256476655,-0.009094472231567844,0.05482499129243642,0.2514500388334785,0.05763611699845157,0.04798670706127696,0.5393812147969913,2.268593193362816,9.39607875960425,0.0,0.27850584116755767,0.267735838023205,0.5754538636304329,0.20693072220740455,-0.7445468743319935,0.05763611699845157,0.04798670706127696,0.5393812147969913
32.6,-97.88969205902153,29.664956658628547,295.20133846553375,312.4199604647741,0,7.715751672871702,217.07552064172225,11.026199665383617,19.84004461551779,-0.012187734739504946,-0.010021726861353131,-0.2847488866710687,0.22295494054732004,-0.006197302542254004,-0.004880287525185597,-1.7872309366499812,3.0516288401310803,9.39607875960425,0.0,0.27850584116755767,0.24504535895890772,-0.6469812261615179,-0.231842444223431,-0.6838253769082749,-0.006197302542254004,-0.004880287525185597,-1.7872309366499812
32.7,-97.89200830519442,29.663059803610466,295.1337027513293,312.3565989484564,0,7.6952274989805325,216.90467764296184,11.026216574312167,19.837790091710975,-0.023162461728957976,-0.018968550180815398,-0.6763571420446982,0.2457789125853771,-0.10974726989452875,-0.0894682331946214,-3.91608255373624,2.7704152614860336,9.39607875960425,0.0,0.27850584116755767,0.2430724117880952,-0.6510066056904827,-0.232551033332825,-0.6804602992612504,-0.10974726989452875,-0.0894682331946214,-3.91608255373624
32.8,-97.89432817679693,29.661168733556,295.13329482437376,312.35676098608405,0,7.675401213701284,216.732194442381,11.026216676293906,19.837776494145793,-0.0231987160250937,-0.018910700544659785,-0.004079269555177466,0.2676307727539455,-0.00036254296135725095,0.0005784963615561629,6.72277872489559,3.0059478129315313,9.39607875960425,0.0,0.27850584116755767,0.33456428904873337,-0.06375952129819519,-0.022694712954667014,-0.9399395778139389,-0.00036254296135725095,0.0005784963615561629,6.72277872489559
33.0,-97.89664933264895,29.659286300199774,295.0974534997271,312.3234449675856,0,7.635483146710776,216.38233817188154,11.026225636625067,19.836581783324235,-0.01160577926007972,-0.009412166781128528,-0.17920662323319647,0.24072128370975115,0.05796468382506907,0.04749266881765561,-0.8756367683900826,2.694578577403276,9.39607875960425,0.0,0.27850584116755767,0.2459004327069568,-0.6381723591281503,-0.22625003744394093,-0.6935992631166487,0.05796468382506907,0.04749266881765561,-0.8756367683900826
33.2,-97.898973141534,29.657409215132034,295.1305014945133,312.3552205037135,0,7.596380165263412,216.02601402597276,11.026217374626372,19.837683383150445,-0.011619044425259352,-0.009385425338699216,0.1652399739307929,0.16281632369731433,-6.632582589816043e-05,0.0001337072121465591,1.7222329858199226,2.0510976917136037,9.39607875960425,0.0,0.27850584116755767,0.24600728701360677,0.635975689379326,0.2247734875773062,-0.6960547511058526,-6.632582589816043e-05,0.0001337072121465591,1.7222329858199226
33.3,-97.9012984922006,29.655541659797734,295.14526712790916,312.3697234137774,0,7.576863344193286,215.8454462506239,11.026213683218023,19.838175570930304,-0.023253506665953595,-0.0186755533430027,0.14765633395882943,0.22162004909402627,-0.11634462240694904,-0.09290128004304013,-0.17583639971964465,0.7756006730838518,9.39607875960425,0.0,0.27850584116755767,0.25687719962143396,0.5973532049380518,0.21017929256714624,-0.7300739125875283,-0.11634462240694904,-0.09290128004304013,-0.17583639971964465
33.5,-97.90362560336318,29.65367850549564,295.20268872113536,312.424531660653,0,7.538222943864554,215.4795394208042,11.026199327819716,19.840089624037844,-0.0116355558129298,-0.009315771510465122,0.28710796613097095,0.34194072851306595,0.05808975426511814,0.046798909162687224,0.6972581608606977,3.052817716526099,9.39607875960425,0.0,0.27850584116755767,0.2401793485800702,0.6496751128706101,0.22803376270659206,-0.6842782557542558,0.05808975426511814,0.046798909162687224,0.6972581608606977
33.61,-97.90595428370332,29.651825223377397,295.23822909744433,312.4586669367252,0,7.517079859648817,215.27559793865814,11.026190442725639,19.841274303248145,-0.02116982127401726,-0.016848019256763557,0.32309433008157035,0.4602984232090769,-0.08667514055534098,-0.06847497951180431,0.32714876318726893,4.246767870365733,9.39607875960425,0.0,0.27850584116755767,0.24274680764827478,0.6390830923894875,0.22326889270527933,-0.694836520304323,-0.08667514055534098,-0.06847497951180431,0.32714876318726893
33.7,-97.90828455187095,29.649975544446654,295.1679631821102,312.3928291794675,0,7.498826588273335,215.10732521075317,11.026208009204472,19.83893210607034,-0.0258918685291724,-0.020551988119362846,-0.7807323926012898,0.5406618769027207,-0.05246719172394401,-0.041155209584434985,-12.264741363142427,5.51050011249688,-174239748733837.5,0.0,-63786474638.88015,0.23765678843903384,-0.6534158803839166,-0.22780706045251412,-0.6816677206520344,-0.05246719172394401,-0.041155209584434985,-12.264741363142427
33.9,-97.91061649648526,29.64813656955811,295.31947450241734,312.5365464152199,0,7.4614737364549,214.72886979090566,11.026170131374395,19.84398248341391,-0.011659723071560072,-0.00919487444273079,0.7575566015356278,0.7259951879801102,0.07116072728806315,0.05678556838316149,7.691444970684752,6.69367002690578,-87239937630624.12,0.0,-221230736518.12238,0.233983698285641,0.6614812885159251,0.22944226640851728,-0.6745742214650723,0.07116072728806315,0.05678556838316149,7.691444970684752
34.1,-97.91294988613599,29.646300739416674,295.20902328764936,312.4327388949257,0,7.421697941132948,214.3442404412284,11.026197744178088,19.840300776254978,-0.011666948253647835,-0.009179150707172437,-0.5522560738398773,0.785238196703441,-3.61259104388138e-05,7.861867779176163e-05,-6.549063376877432,8.458734079603357,-87239937630624.12,0.0,-221230736518.12238,0.23443322551457627,-0.659152402134272,-0.22821618433005153,-0.67710896223967,-3.61259104388138e-05,7.861867779176163e-05,-6.549063376877432
34.2,-97.91528587938465,29.644475364576508,295.08764336907757,312.31861199358343,0,7.401227093044527,214.14963186814148,11.02622808915773,19.836254778969252,-0.023359932486641477,-0.01825374840166179,-1.2137991857178858,1.1382150722448865,-0.11692984232993475,-0.09074597694489224,-6.615431118779991,12.338634280528105,-87239937630624.12,0.0,-221230736518.12238,0.23303172160697738,-0.6603608364682885,-0.2274096168398361,-0.6766865216276657,-0.11692984232993475,-0.09074597694489224,-6.615431118779991
34.4,-97.91762317476547,29.64265753544018,295.2116960799496,312.43638324682877,0,7.364120335968361,213.75587017127594,11.026197075980011,19.840389869331652,-0.011686476904060578,-0.009089145681642402,0.6202635543601919,1.0640681804989696,0.05836727791290574,0.04582301360009792,9.170313700390585,16.131471971551,-87239937630624.12,0.0,-221230736518.12238,0.23219764566496162,0.6608073563179805,0.22672150253579174,-0.6767682405902359,0.05836727791290574,0.04582301360009792,9.170313700390585
34.5,-97.9199614707866,29.640842602257738,294.95708165547705,312.1963779791942,0,7.342487791137911,213.5567345479524,11.02626072958613,19.831902721849236,-0.0233829602113641,-0.01814933182441055,-2.5461442447254607,1.1982158626259523,-0.11696483307303357,-0.0906018614276802,-31.66407799085608,16.51552083306307,-87239937630624.12,0.0,-221230736518.12238,0.23047624669176148,-0.6650482483831532,-0.22781243551441174,-0.6728246586283606,-0.11696483307303357,-0.0906018614276802,-31.66407799085608
34.61,-97.9223004059313,29.63903497512585,294.9995453328247,312.2370590715002,0,7.321987578074132,213.33596313235807,11.026250113666794,19.833318177760823,-0.02126304676993011,-0.01643297392626352,0.3860334304332292,1.0004504485692918,0.019271940376672746,0.015603253619518542,26.656160683260957,18.085218387364694,-87239937630624.12,0.0,-221230736518.12238,0.23624996600160084,0.6455323546997388,0.22037558658306364,-0.6920321765916839,0.019271940376672746,0.015603253619518542,26.656160683260957
34.8,-97.92464434865899,29.637237373986906,294.76715725109733,312.01807448265964,0,7.283701196069506,212.95041498136132,11.026308210687226,19.82557190836991,-0.012336540672059245,-0.009461058626015349,-1.2230951669862193,0.9705494715820656,0.04698161104142617,0.036694291053938184,-8.469097881155093,16.945352543801786,-2331657161913.8486,0.0,58327383805.026855,0.22864418461274183,-0.6653413255862153,-0.2257563583843306,-0.673852227093595,0.04698161104142617,0.036694291053938184,-8.469097881155093
34.9,-97.92698608740646,29.63544361862813,294.78949675132793,312.039743490372,0,7.265092411759639,212.74536750193124,11.026302625812168,19.8263165583776,-0.02341738747475086,-0.017937553587756585,0.2233950023060029,0.48713717709369,-0.11080846802691459,-0.08476494961741116,14.464901692922018,10.954758666088024,-4663314323987.031,0.0,116654767610.19841,0.2414125991089563,0.6243063954003737,0.2116310137874054,-0.7121613550712828,-0.11080846802691459,-0.08476494961741116,14.464901692922018
35.1,-97.92933182058897,29.633660958680718,294.69535577646496,311.9513753918362,0,7.226693358820713,212.33091568811068,11.026326161055884,19.823178525882167,-0.011728665912542457,-0.008913299737063214,-0.4707048743148267,0.4323259194329747,0.05844360781104119,0.04512126925346621,-3.470499383104099,6.0992931703368845,-4663314323987.031,0.0,116654767610.19841,0.22923656038768114,-0.6595438397830681,-0.22217459343921372,-0.6805078785847757,0.05844360781104119,0.04512126925346621,-3.470499383104099
35.3,-97.9316792866014,29.631884643618957,294.6696729713604,311.9276816258457,0,7.189266982055608,211.91071624109645,11.02633258175716,19.822322432378677,-0.01173733006211844,-0.008881575308805812,-0.12841402552283218,0.2190734826733165,-4.332074787991117e-05,0.00015862214128701388,1.7114542439600093,4.931786352031466,-4663314323987.031,0.0,116654767610.19841,0.23750658583314713,-0.6310204305403478,-0.2118384309815685,-0.7074802591492029,-4.332074787991117e-05,0.00015862214128701388,1.7114542439600093
35.4,-97.93402449381936,29.630111942759356,294.6805746827561,311.9385480870485,0,7.170903910944101,211.69848445965792,11.02632985632931,19.822685822758537,-0.023452072179707906,-0.01772700859600437,0.10901711395717784,0.18925378395027795,-0.117147421175893,-0.08845433287198433,2.3743113948000665,2.119369864164443,-4663314323987.031,0.0,116654767610.19841,0.25244744828580923,0.5765575435920696,0.19338908275562267,-0.7526302860315957,-0.117147421175893,-0.08845433287198433,2.3743113948000665
35.5,-97.93637090060038,29.628346595259778,294.66515865927164,311.9245540108097,0,7.152355252020797,211.48484386190574,11.026333710335182,19.822171955309056,-0.023464067810152422,-0.017653474995782154,-0.15416023484476463,0.10256303460552516,-0.00011995630444516621,0.0007353360022221526,-2.631773488019387,1.4654252748452017,-4663314323987.031,0.0,116654767610.19841,0.24418151443696332,-0.6046623654600578,-0.20206150140836548,-0.730705112512644,-0.00011995630444516621,0.0007353360022221526,-2.631773488019387
35.7,-97.938721875285,29.626590760118564,294.6501965513905,311.9109912305192,0,7.115656751971413,211.05337426006213,11.026337450862153,19.821673218379683,-0.011754873423086398,-0.00877917570607055,-0.07481053940580189,0.1730006142421955,0.05854597193532929,0.04437149644855739,0.39674847719480805,1.9347145357070956,-4663314323987.031,0.0,116654767610.19841,0.24343838132960663,-0.6030274162152041,-0.20033384006821042,-0.732776938987548,0.05854597193532929,0.04437149644855739,0.39674847719480805
35.9,-97.94107341619794,29.624841476173703,294.6432969114474,311.9050456617412,0,7.079371203609039,210.61638414013626,11.026339175772138,19.82144323038158,-0.011757704564701293,-0.008746419724303863,-0.034498199715358904,0.20598063045155673,-1.415570807447616e-05,0.0001637799088334332,0.20156169845221922,1.9142415684299554,-4663314323987.031,0.0,116654767610.19841,0.2621680355767187,-0.5238525625989834,-0.17347657843868833,-0.7916768851706661,-1.415570807447616e-05,0.0001637799088334332,0.20156169845221922
